#timestamp [ns],w_RS_S_x [rad s^-1],w_RS_S_y [rad s^-1],w_RS_S_z [rad s^-1],a_RS_S_x [m s^-2],a_RS_S_y [m s^-2],a_RS_S_z [m s^-2]
5666729235753115064,3.08286e-41,1.58347e-43,0,1.4013e-43,0,-1.42396e-18
-8953335399567364008,0,0,0,-0.0273438,0.0078125,-0.00390625
-8953335399561533008,0,0,0,0.0117188,0.0078125,-0.00390625
-8953335399553323008,0,0,0,0.0117188,0.0078125,-0.00390625
-8953335399547035008,0,0,0,-0.0273438,0.0078125,-0.00390625
-8953335399539465008,0,0,0,-0.0273438,0.0078125,-0.00390625
-8953335399533858008,0,0,0,-0.0273438,0.0078125,0.0351562
-8953335399524567008,0,0,0,0.0117188,0.0078125,-0.00390625
-8953335399516479008,0,0,0,-0.0273438,-0.03125,0.0351562
-8953335399509215008,0,0,0,-0.0273438,-0.03125,0.0351562
-8953335399502869008,0,0,0,0.0117188,0.0078125,-0.0429688
-8953335399498005008,0,0,0,0.0117188,0.0078125,-0.00390625
-8953335399493151008,0,0,0,-0.0273438,-0.03125,-0.00390625
-8953335399488289008,0,0,0,0.0117188,0.0078125,-0.00390625
-8953335399483296008,0,0,0,0.0117188,0.046875,-0.00390625
-8953335399478363008,0,0,0,0.0117188,0.0078125,-0.00390625
-8953335399473360008,0,0,0,0.0117188,-0.03125,-0.00390625
-8953335399468187008,0,0,0,-0.0273438,0.0078125,0.0351562
-8953335399463337008,0,0,0,-0.0273438,0.0078125,-0.00390625
-8953335399458379008,0,0,0,0.0117188,0.0078125,-0.00390625
-8953335399453328008,0,0,0,0.0117188,0.0078125,-0.00390625
-8953335399448215008,0,0,0,-0.0273438,0.0078125,-0.0429688
-8953335399443312008,0,0,0,0.0117188,0.0078125,-0.0429688
-8953335399438382008,0,0,0,0.0117188,0.0078125,0.0742188
-8953335399433301008,0,0,0,0.0117188,0.0078125,-0.0429688
-8953335399428297008,0,0,0,0.0117188,0.0078125,-0.00390625
-8953335399423363008,0,0,0,-0.0273438,0.0078125,-0.00390625
-8953335399418357008,0,0,0,-0.0273438,0.0078125,0.0351562
-8953335399413222008,0,0,0,0.0117188,0.0078125,-0.00390625
-8953335399408285008,0,0,0,0.0117188,0.0078125,0.0351562
-8953335399403339008,0,0,0,0.0117188,0.046875,-0.0429688
-8953335399398317008,0,0,0,0.0117188,-0.03125,0.0351562
-8953335399393328008,0,0,0,0.0117188,0.0078125,0.0351562
-8953335399388289008,0,0,0,0.0117188,0.0078125,-0.00390625
-8953335399383336008,0,0,0,0.0117188,0.0078125,-0.00390625
-8953335399378222008,0,0,0,0.0117188,0.0078125,-0.00390625
-8953335399373292008,0,0,0,0.0117188,0.0078125,-0.00390625
-8953335399368261008,0,0,0,0.0117188,0.0078125,-0.00390625
-8953335399363272008,0,0,0,-0.0273438,0.0078125,-0.00390625
-8953335399358366008,0,0,0,0.0117188,0.0078125,-0.00390625
-8953335397307479008,0,0,0,-0.0273438,0.0078125,-0.0429688
-8953335397302551008,0,0,0,-0.0273438,0.0078125,-0.00390625
-8953335397295318008,0,0,0,-0.0273438,0.0078125,-0.00390625
-8953335397285931008,0,0,0,0.0117188,0.0078125,-0.0429688
-8953335397281083008,0,0,0,0.0117188,0.0078125,-0.0429688
-8953335397273788008,0,0,0,0.0117188,0.0078125,-0.0429688
-8953335397264205008,0,0,0,0.0117188,0.0078125,-0.00390625
-8953335397257904008,0,0,0,0.0117188,0.0078125,-0.00390625
-8953335397250361008,0,0,0,0.0117188,0.0078125,-0.0429688
-8953335397241690008,0,0,0,0.0117188,0.0078125,-0.0429688
-8953335397235645008,0,0,0,0.0117188,-0.03125,-0.00390625
-8953335397227077008,0,0,0,0.0117188,-0.03125,-0.00390625
-8953335397219327008,0,0,0,0.0117188,0.0078125,-0.00390625
-8953335397211396008,0,0,0,0.0117188,0.0078125,-0.00390625
-8953335397201485008,0,0,0,0.0117188,0.0078125,-0.00390625
-8953335397192321008,0,0,0,0.0117188,0.0078125,-0.00390625
-8953335397181368008,0,0,0,-0.0273438,0.0078125,-0.00390625
-8953335397168458008,0,0,0,-0.0273438,0.0078125,-0.00390625
-8953335397156357008,0,0,0,0.0117188,0.0078125,-0.00390625
-8953335397147121008,0,0,0,-0.0273438,0.0078125,0.0351562
-8953335397138722008,0,0,0,0.0117188,0.0078125,-0.00390625
-8953335397129082008,0,0,0,0.0117188,-0.03125,0.0351562
-8953335397120427008,0,0,0,0.0117188,0.0078125,-0.00390625
-8953335397111864008,0,0,0,0.0117188,0.0078125,-0.00390625
-8953335397106041008,0,0,0,0.0507812,0.0078125,-0.00390625
-8953335397097361008,0,0,0,0.0507812,0.0078125,-0.00390625
-8953335397091275008,0,0,0,-0.0273438,0.0078125,-0.00390625
-8953335397080893008,0,0,0,-0.0273438,0.0078125,-0.00390625
-8953335397070840008,0,0,0,0.0117188,-0.03125,-0.00390625
-8953335397057083008,0,0,0,0.0117188,-0.03125,-0.00390625
-8953335397048031008,0,0,0,0.0117188,0.0078125,-0.00390625
-8953335397035690008,0,0,0,0.0117188,0.0078125,-0.00390625
-8953335397025185008,0,0,0,0.0117188,0.0078125,-0.00390625
-8953335397013878008,0,0,0,0.0117188,-0.03125,0.0351562
-8953335397006635008,0,0,0,0.0117188,-0.03125,0.0351562
-8953335396999811008,0,0,0,0.0117188,-0.03125,0.0351562
-8953335396991966008,0,0,0,-0.0273438,-0.03125,-0.00390625
-8953335396985232008,0,0,0,0.0117188,0.0078125,-0.0429688
-8953335396978688008,0,0,0,0.0117188,0.0078125,0.0351562
-8953335396966171008,0,0,0,0.0117188,0.046875,-0.00390625
-8953335396956085008,0,0,0,0.0117188,0.0078125,0.0351562
-8953335396945431008,0,0,0,0.0117188,0.0078125,0.0351562
-8953335396936370008,0,0,0,0.0117188,0.0078125,0.0351562
-8953335396929606008,0,0,0,0.0117188,0.0078125,0.0351562
-8953335396920485008,0,0,0,-0.0273438,0.0078125,-0.00390625
-8953335396914865008,0,0,0,0.0117188,0.0078125,-0.00390625
-8953335396905033008,0,0,0,-0.0273438,0.0078125,-0.00390625
-8953335396895476008,0,0,0,0.0117188,0.0078125,-0.00390625
-8953335396886100008,0,0,0,0.0117188,0.0078125,-0.00390625
-8953335396880088008,0,0,0,-0.0273438,0.0078125,0.0351562
-8953335396870010008,0,0,0,0.0117188,0.0078125,-0.00390625
-8953335396861608008,0,0,0,0.0117188,0.0078125,-0.00390625
-8953335396854260008,0,0,0,0.0117188,0.0078125,-0.0429688
-8953335396846204008,0,0,0,0.0117188,0.0078125,-0.0429688
-8953335396836871008,0,0,0,0.0117188,0.0078125,-0.0429688
-8953335396827067008,0,0,0,-0.0273438,-0.03125,-0.00390625
-8953335396819780008,0,0,0,-0.0273438,-0.03125,-0.00390625
-8953335396804272008,0,0,0,0.0117188,0.0078125,-0.00390625
-8953335396795606008,0,0,0,0.0117188,0.0078125,-0.00390625
-8953335396785126008,0,0,0,0.0117188,0.0078125,-0.00390625
-8953335396775301008,0,0,0,0.0117188,0.0078125,-0.00390625
-8953335396766618008,0,0,0,0.0117188,0.0078125,-0.00390625
-8953335396760725008,0,0,0,0.0117188,0.0078125,0.0351562
-8953335396750261008,0,0,0,0.0117188,0.0078125,0.0351562
-8953335396742874008,0,0,0,-0.0273438,-0.03125,-0.0429688
-8953335396734661008,0,0,0,0.0117188,-0.03125,0.0351562
-8953335396725788008,0,0,0,0.0117188,0.0078125,-0.0429688
-8953335396718394008,0,0,0,0.0117188,0.0078125,-0.0429688
-8953335396712319008,0,0,0,-0.0273438,-0.03125,-0.00390625
-8953335396707083008,0,0,0,0.0117188,0.0078125,-0.0429688
-8953335396696700008,0,0,0,0.0117188,0.0078125,-0.00390625
-8953335396691612008,0,0,0,0.0117188,-0.03125,-0.00390625
-8953335396677621008,0,0,0,0.0117188,-0.03125,-0.00390625
-8953335396669743008,0,0,0,0.0507812,0.0078125,0.0351562
-8953335396657496008,0,0,0,-0.0273438,-0.03125,-0.00390625
-8953335396645526008,0,0,0,0.0117188,-0.03125,0.0351562
-8953335396631664008,0,0,0,0.0117188,-0.03125,0.0351562
-8953335396622224008,0,0,0,-0.0273438,0.0078125,-0.0429688
-8953335396613601008,0,0,0,0.0117188,0.0078125,0.0351562
-8953335396600991008,0,0,0,0.0117188,0.0078125,-0.0429688
-8953335396590284008,0,0,0,0.0117188,0.0078125,-0.00390625
-8953335396580881008,0,0,0,0.0117188,0.0078125,-0.00390625
-8953335396569871008,0,0,0,0.0117188,0.0078125,-0.00390625
-8953335396559977008,0,0,0,0.0117188,-0.03125,-0.00390625
-8953335396550404008,0,0,0,0.0117188,0.0078125,-0.00390625
-8953335396542066008,0,0,0,0.0117188,0.0078125,-0.00390625
-8953335396534999008,0,0,0,0.0117188,-0.03125,-0.00390625
-8953335396526162008,0,0,0,0.0117188,0.0078125,-0.0429688
-8951364006526547008,0,0,0,0.0117188,0.0078125,-0.0429688
-8951364006516020008,0,0,0,-0.0273438,0.0078125,-0.00390625
-8951364006504589008,0,0,0,0.0117188,0.0078125,-0.00390625
-8951364006493213008,0,0,0,0.0117188,0.0078125,-0.00390625
-8951364006482001008,0,0,0,-0.0273438,0.0078125,0.0351562
-8951364006472374008,0,0,0,0.0117188,0.0078125,-0.00390625
-8951364006461017008,0,0,0,0.0117188,0.0078125,0.0351562
-8951364006451439008,0,0,0,0.0117188,0.0078125,0.0351562
-8953335396428752008,0,0,0,0.0117188,0.0078125,0.0351562
-8953335396417014008,0,0,0,0.0117188,-0.03125,0.0351562
-8953335396401534008,0,0,0,0.0507812,0.0078125,0.0351562
-8953335396387312008,0,0,0,0.0117188,0.0078125,0.0351562
-8951299581878438008,0,0,0,0.0117188,0.0078125,0.0351562
-8951299581867930008,0,0,0,0.0117188,0.0078125,-0.00390625
-8951299581859089008,0,0,0,0.0117188,0.0078125,-0.00390625
-8951299581849471008,0,0,0,0.00390625,0.0078125,0.0351562
-8951299581840036008,0,0,0,0.00390625,0.015625,-0.00390625
-8951299581830804008,0,0,0,0.00390625,0.015625,-0.00390625
-8951299581818114008,0,0,0,-0.0351562,0.015625,-0.00390625
-8951299581809012008,0,0.00195312,0.00195312,-0.0351562,0.015625,-0.00390625
-8951299581800601008,0,0.00195312,0.00195312,0.00390625,0.015625,-0.00390625
-8951299581791671008,0,0.00195312,0.00195312,0.00390625,-0.0234375,0.0351562
-8951299581781960008,0,0.00195312,0.00195312,-0.0351562,0.015625,0.0351562
-8953163597578301008,0,0.00195312,0.00195312,-0.0351562,0.015625,0.0351562
-8953163597564838008,0,0.00195312,0.00195312,-0.0273438,0.015625,-0.00390625
-8953163597556419008,0,0.00195312,0.00195312,0.0117188,0.015625,-0.00390625
-8953163597545006008,0,0.00195312,0.00195312,0.0117188,0.015625,0.0351562
-8953163597532064008,0,0.00195312,0.00195312,0.0117188,0.015625,-0.00390625
-8953163597519431008,0,0.00195312,0.00195312,0.0117188,0.015625,-0.00390625
-8953163597506845008,0,0.00195312,0.00195312,0.0117188,0.015625,-0.00390625
-8953163597496262008,0.00390625,0.00390625,0.00390625,0.0117188,0.015625,-0.00390625
-8953163597482428008,0.00390625,0.00390625,0.00390625,0.0117188,0.0078125,-0.00390625
-8953163597473826008,0.00390625,0.00390625,0.00390625,0.0117188,0.0078125,0.0351562
-8951235157146662008,0.00390625,0.00390625,0.00390625,0.0117188,0.0078125,0.0351562
-8951235157134715008,0.00390625,0.00390625,0.00390625,0.0117188,0.0078125,0.0351562
-8953206547115027008,0.00390625,0.00390625,0.00390625,0.0117188,0.0078125,0.0351562
-8953206547101761008,0.00390625,0.00390625,0.00390625,0.0117188,0.0078125,-0.0429688
-8953206547093593008,0.00390625,0.00390625,0.00390625,0.0117188,0.0078125,0.0351562
-8953206547085470008,0.00390625,0.00390625,0.00390625,0.0117188,0.0078125,-0.00390625
-8953206547076364008,0.00390625,0.00390625,0.00390625,0.0117188,-0.03125,0.0351562
-8953099172885066008,0.00390625,0.00390625,0.00390625,0.0117188,-0.03125,0.0351562
-8953099172878962008,0.00390625,0.00390625,0.00390625,0.0507812,0.015625,-0.00390625
-8953099172871666008,0.00390625,0.00390625,0.00390625,0.0507812,0.015625,-0.00390625
-8953099172863961008,0.00390625,0.00390625,0.00390625,0.0117188,0.015625,0.0351562
-8953099172857890008,0.00390625,0.00390625,0.00390625,0.0117188,-0.0234375,-0.00390625
-8953099172844407008,0.00390625,0.00390625,0.00390625,0.0117188,-0.0234375,-0.00390625
-8953099172831916008,0.00390625,0.00390625,0.00390625,-0.0273438,-0.0234375,0.0351562
-8953099172823649008,0.00390625,0.00390625,0.00390625,0.0117188,0.015625,-0.00390625
-8953099172810978008,0.00390625,0.00390625,0.00390625,0.0117188,0.015625,-0.00390625
-8953099172802870008,0.00390625,0.00390625,0.00390625,0.0117188,0.015625,-0.00390625
-8953099172793820008,0.00390625,0.00390625,0.00390625,0.0117188,0.015625,0.0351562
-8955070562774203008,0.00390625,0.00390625,0.00390625,0.0117188,0.015625,0.0351562
-8955070562766696008,0.00390625,0.00390625,0.00390625,0.0117188,0.015625,-0.00390625
-8955070562756475008,0.00390625,0.00390625,0.00390625,0.0117188,0.015625,-0.00390625
-8955070562746278008,0.00390625,0.00390625,0.00390625,0.0117188,0.015625,-0.00390625
-8955070562737613008,0.00390625,0.00390625,0.00390625,-0.0273438,0.015625,-0.0429688
-8955070562725075008,0.00390625,0.00390625,0.00390625,-0.0273438,0.015625,-0.0429688
-8955070562719184008,0.00390625,0.00390625,0.00390625,0.0117188,-0.0234375,-0.00390625
-8955070562711054008,0.00390625,0.00390625,0.00390625,0.0117188,0.015625,0.0351562
-8955070562702935008,0.00390625,0.00390625,0.00390625,0.0117188,0.015625,-0.00390625
-8955134987201522008,0.00390625,0.00390625,0.00390625,0.0117188,0.015625,-0.00390625
-8955134987191899008,0.00390625,0.00390625,0.00390625,0.0117188,-0.0234375,-0.0429688
-8955134987181919008,0.00390625,0.00390625,0.00390625,-0.0273438,0.015625,-0.00390625
-8955134987173948008,0.00390625,0.00390625,0.00390625,-0.0273438,0.015625,-0.00390625
-8955134987166910008,0.00390625,0.00390625,0.00390625,0.0507812,0.015625,-0.0429688
-8955177936829506008,0.00390625,0.00390625,0.00390625,0.0507812,0.015625,-0.0429688
-8955177936822503008,0.00390625,0.00390625,0.00390625,0.0507812,0.015625,0.0351562
-8955177936813799008,0.00390625,0.00390625,0.00390625,0.0507812,-0.0234375,0.0351562
-8955177936804351008,0.00390625,0.00390625,0.00390625,-0.0273438,-0.0234375,0.0351562
-8955177936792042008,0.00390625,0.00390625,0.00390625,0.0117188,0.015625,-0.00390625
-8955177936783902008,0.00390625,0.00390625,0.00390625,0.0117188,0.015625,-0.00390625
-8955177936770746008,0.00390625,0.00390625,0.00390625,0.0117188,-0.0234375,-0.00390625
-8955177936758170008,0,-0.00195312,-0.00195312,0.0117188,-0.0234375,-0.00390625
-8955177936750885008,0,-0.00195312,-0.00195312,0.0117188,0.015625,-0.0429688
-8955199411576414008,0,-0.00195312,-0.00195312,0.0117188,0.015625,-0.0429688
-8955199411564549008,0,-0.00195312,-0.00195312,0.0117188,0.015625,-0.0429688
-8955199411558590008,0,-0.00195312,-0.00195312,-0.0273438,0.015625,0.0351562
-8955199411538492008,0,-0.00195312,-0.00195312,0.0117188,0.015625,0.0351562
-8955199411526981008,0,-0.00195312,-0.00195312,0.0117188,-0.0234375,-0.00390625
-8955199411516390008,0,-0.00195312,-0.00195312,0.0117188,-0.0234375,-0.00390625
-8955199411506594008,0,-0.00195312,-0.00195312,0.0117188,-0.0234375,-0.00390625
-8955199411498018008,-0.00195312,-0.00195312,-0.0078125,0.0117188,-0.0234375,-0.00390625
-8955199411487530008,-0.00195312,-0.00195312,-0.0078125,0.0117188,0.0078125,-0.00390625
-8955199411479304008,-0.00195312,-0.00195312,-0.0078125,0.0117188,0.0078125,0.0742188
-8955199411469665008,-0.00195312,-0.00195312,-0.0078125,0.0117188,0.0078125,-0.00390625
-8955199411459401008,-0.00195312,-0.00195312,-0.0078125,0.0117188,0.0078125,-0.00390625
-8955199411450585008,-0.00195312,-0.00195312,-0.0078125,0.0507812,-0.03125,-0.0429688
-8955199411439234008,-0.00195312,-0.00195312,-0.0078125,-0.0273438,0.015625,-0.00390625
-8955199411428459008,-0.00195312,-0.00195312,-0.0078125,0.0117188,0.015625,-0.0429688
-8955199411419698008,-0.00195312,-0.00195312,-0.0078125,0.0117188,0.015625,-0.00390625
-8955199411408841008,-0.00195312,-0.00195312,-0.0078125,0.00390625,0.015625,-0.00390625
-8955199411400658008,-0.00195312,-0.00195312,-0.0078125,-0.0351562,-0.0234375,-0.00390625
-8955199411391927008,-0.00195312,-0.00195312,-0.0078125,0.0429688,0.015625,0.0351562
-8957170801372691008,-0.00195312,-0.00195312,-0.0078125,0.0429688,0.015625,0.0351562
-8957170801366361008,-0.00195312,-0.00195312,-0.0078125,0.00390625,0.015625,-0.00390625
-8959142191347006008,-0.00195312,-0.00195312,-0.0078125,0.00390625,0.015625,-0.00390625
-8959142191337345008,-0.00195312,-0.00195312,-0.0078125,0.00390625,-0.0234375,0.0351562
-8959142191329869008,-0.00195312,-0.00195312,-0.0078125,0.00390625,-0.0234375,0.0351562
-8959142191321503008,-0.00195312,-0.00195312,-0.0078125,0.00390625,-0.0234375,0.0351562
-8959142191314951008,-0.00195312,-0.00195312,-0.0078125,0.00390625,0.015625,0.0351562
-8959142191307333008,0,0,0,0.00390625,0.015625,0.0351562
-8959142191298834008,0,0,0,-0.0351562,0.015625,-0.00390625
-8959142191286051008,0,0,0,-0.0351562,0.015625,-0.00390625
-8959142191272412008,0,0,0,0.00390625,0.015625,0.0351562
-8959142191260998008,0,0,0,0.00390625,0.015625,-0.00390625
-8959142191252835008,0,0,0,-0.0351562,0.0078125,-0.0429688
-8959142191239008008,0,0,0,0.0429688,0.0078125,0.0351562
-8959142191230407008,0,0,0,0.0429688,0.0078125,0.0351562
-8959142191217187008,0,0,0,0.00390625,0.0078125,-0.0429688
-8959142191208508008,0,0,0,0.00390625,-0.03125,0.0351562
-8959142191196174008,0,0,0,0.00390625,0.0078125,-0.00390625
-8959142191186074008,0,0,0,0.00390625,-0.03125,-0.00390625
-8959142191176987008,0,0,0,0.00390625,0.0078125,0.0351562
-8959142191168241008,0,0,0,0.00390625,0.0078125,-0.00390625
-8959142191159635008,0,0,0,0.00390625,0.0078125,-0.00390625
-8959142191151724008,0,0,0,0.00390625,0.0078125,-0.00390625
-8959142191145779008,0,0,0,-0.0351562,-0.03125,-0.00390625
-8959142191140561008,0,0,0,0.00390625,0.0078125,0.0351562
-8959142191133771008,0,0,0,-0.0351562,0.0078125,-0.00390625
-8959142191123424008,0,0,0,0.00390625,0.0078125,0.0351562
-8959142191114797008,0,0,0,-0.0351562,0.0078125,-0.00390625
-8959142191106948008,0,0,0,-0.0351562,0.0078125,-0.00390625
-8959142191100238008,0,0,0,-0.0351562,0.0078125,0.0351562
-8959142191092634008,0,0,0,0.00390625,0.0078125,-0.00390625
-8959142191084925008,0,0,0,0.00390625,0.0078125,-0.00390625
-8959142191076678008,0,0,0,0.00390625,0.0078125,-0.00390625
-8959142191070741008,0,0,0,0.00390625,0.0078125,0.0351562
-8959142191065849008,0,0,0,0.00390625,-0.03125,-0.00390625
-8959142191057093008,0,0,0,0.00390625,0.0078125,0.0351562
-8959142191048928008,0,0,0,0.0429688,0.0078125,-0.00390625
-8959142191038664008,0,0,0,0.00390625,0.0078125,-0.00390625
-8959142191026167008,0,0,0,0.00390625,0.0078125,-0.00390625
-8959142191016898008,0,0,0,0.00390625,0.0078125,0.0351562
-8959142191008282008,0,0,0,0.00390625,0.0078125,-0.0429688
-8959142190998223008,0,0,0,0.00390625,0.0078125,0.0351562
-8959142190990766008,0,0,0,0.00390625,0.0078125,0.0351562
-8959142190984822008,0,0,0,0.00390625,0.0078125,-0.0429688
-8959142190974106008,0,0,0,0.00390625,0.0078125,-0.0429688
-8959142190964606008,0,0,0,0.00390625,-0.0664062,0.0351562
-8959142190954979008,0,0,0,0.0429688,0.0859375,-0.00390625
-8959142190944132008,0,0,0,-0.0351562,-0.03125,-0.00390625
-8959142190933577008,0,0,0,-0.0351562,-0.03125,-0.00390625
-8959142190923374008,0,0,0,0.00390625,0.0078125,0.0273438
-8959142190914060008,0,0,0,-0.0351562,0.0078125,-0.0117188
-8959142190905794008,0,0,0,-0.0351562,0.0078125,-0.0117188
-8959142190898691008,0,0,0,0.00390625,-0.03125,-0.0117188
-8959142190885386008,0,0,0,0.00390625,-0.03125,-0.0117188
-8959142190877167008,0,0,0,0.00390625,-0.03125,-0.0117188
-8959142190867965008,0,0,0,-0.0351562,0.0078125,0.0273438
-8959142190859056008,0,0,0,0.00390625,-0.03125,-0.0117188
-8959142190850173008,0,0,0,0.0117188,-0.03125,-0.0117188
-8959077766332527008,0,0,0,0.0117188,-0.03125,-0.0117188
-8959077766322184008,0,0,0,0.078125,-0.105469,0.0273438
-8959077766312665008,-0.00195312,0,0.0234375,0.078125,-0.105469,0.0273438
-8959077766305153008,-0.00195312,0,0.0234375,0.00390625,-0.105469,-0.0117188
-8933252127943798008,-0.00195312,0,0.0234375,0.00390625,-0.105469,-0.0117188
-8907533863765106008,-0.00195312,0,0.0234375,0.00390625,-0.105469,-0.0117188
-8907533863757978008,-0.00195312,0,0.0234375,-2.01953,-0.015625,-0.0117188
-8907533863749725008,-0.00195312,0,0.0234375,-3.58203,0.101562,-0.0507812
-8907533863739971008,-0.00195312,0,0.0234375,-5.11328,0.644531,0.0273438
-8605524648375775008,-0.00195312,0,0.0234375,-5.11328,0.644531,0.0273438
-8605524648368583008,0.00976562,-0.0273438,0.996094,-5.11328,0.644531,0.0273438
-8285798692907568008,0.00976562,-0.0273438,0.996094,-5.11328,0.644531,0.0273438
-8285798692900214008,0.00976562,-0.0273438,0.996094,-1.53516,-0.214844,-0.128906
-8285798692891706008,0.00976562,-0.0273438,0.996094,-0.945312,-0.480469,-0.0117188
-8285798692883562008,0.00976562,-0.0273438,0.996094,-0.332031,-0.703125,-0.0117188
-8285798692872237008,0.00976562,-0.0273438,0.996094,0.0898438,-0.632812,-0.0117188
-7534608912793653008,0.00976562,-0.0273438,0.996094,0.0898438,-0.632812,-0.0117188
-7386333756821625008,0.00976562,-0.0273438,0.996094,0.0898438,-0.632812,-0.0117188
-7386333756815678008,0.00976562,-0.0273438,0.996094,1.82812,-0.917969,-0.394531
-7386333756810784008,0.00976562,-0.0273438,0.996094,2.25,-1.33203,0.410156
-7386333756799890008,0.00976562,-0.0273438,0.996094,4.05859,-1.4375,-0.164062
-7033648222314225008,0.00976562,-0.0273438,0.996094,4.05859,-1.4375,-0.164062
-7033648222304689008,0.00976562,-0.0273438,0.996094,5.58984,-0.671875,0.101562
-7033648222295838008,0.00976562,-0.0273438,0.996094,4.82422,0.714844,0.140625
-6855810806430305008,0.00976562,-0.0273438,0.996094,4.82422,0.714844,0.140625
-6855810806424276008,0.00976562,-0.0273438,0.996094,2.95312,0.21875,-0.128906
-6855810806419330008,0.00976562,-0.0273438,0.996094,2.71484,-0.203125,0.140625
-6855810806413386008,0.00976562,-0.0273438,0.996094,2.67969,-0.359375,0.0664062
-6855810806407348008,0.00976562,-0.0273438,0.996094,2.64062,-0.472656,0.0273438
-6855810806401403008,-0.0078125,-0.00585938,-0.121094,2.64062,-0.472656,0.0273438
-6855810806393724008,-0.0078125,-0.00585938,-0.121094,2.02734,-0.203125,0.0664062
-6855810806385159008,-0.0078125,-0.00585938,-0.121094,1.75781,-0.167969,0.0664062
-6855810806379938008,-0.0078125,-0.00585938,-0.121094,1.30078,0.21875,0.601562
-6855810806371748008,-0.0078125,-0.00585938,-0.121094,1.22266,0.636719,-0.128906
-6855810806362821008,-0.0078125,-0.00585938,-0.121094,1.34375,0.53125,0.601562
-7074102519173224008,-0.0078125,-0.00585938,-0.121094,1.34375,0.53125,0.601562
-7074102519167242008,-0.0078125,-0.00585938,-0.121094,1.16797,-0.0820312,-0.164062
-7074102519160809008,-0.046875,0.166016,-0.441406,1.16797,-0.0820312,-0.164062
-7074102519149224008,-0.046875,0.166016,-0.441406,0.617188,0.15625,0.0273438
-7294734989135744008,-0.046875,0.166016,-0.441406,0.617188,0.15625,0.0273438
-7371971386010877008,-0.046875,0.166016,-0.441406,0.617188,0.15625,0.0273438
-7459142042238786008,-0.046875,0.166016,-0.441406,0.617188,0.15625,0.0273438
-7459142042229196008,-0.046875,0.166016,-0.441406,-1.50391,1.39062,-0.394531
-7459142042219543008,-0.046875,0.166016,-0.441406,-1.42578,1.19141,-0.28125
-7459142042205848008,-0.046875,0.166016,-0.441406,-2.03906,1.05859,-0.0117188
-7459142042195162008,-0.046875,0.166016,-0.441406,-2.73828,1.09766,0.0273438
-7459142042184634008,-0.046875,0.166016,-0.441406,-3.77344,1.08203,0.0664062
-8151817187800243008,-0.046875,0.166016,-0.441406,-3.77344,1.08203,0.0664062
-8151817187790427008,-0.046875,0.166016,-0.441406,-0.914062,-1.17578,-0.855469
-8259272974556501008,-0.046875,0.166016,-0.441406,-0.914062,-1.17578,-0.855469
-8259272974546961008,-0.046875,0.166016,-0.441406,-2.35547,0.0546875,-0.347656
-8259272974537559008,-0.046875,0.166016,-0.441406,-0.332031,-1.04688,1.25391
-8259272974528797008,-0.046875,0.166016,-0.441406,-1.32812,-0.824219,-1.31641
-8175190399767025008,-0.046875,0.166016,-0.441406,-1.32812,-0.824219,-1.31641
-8175190399759773008,-0.046875,0.166016,-0.441406,1.19922,-0.320312,0.449219
-8175190399747956008,-0.046875,0.166016,-0.441406,1.3125,-0.550781,-0.472656
-8175190399739632008,-0.046875,0.166016,-0.441406,2.73047,-0.128906,-0.0117188
-8175190399728293008,-0.046875,0.166016,-0.441406,0.125,0.285156,0.101562
-8175190399716566008,-0.046875,0.166016,-0.441406,1.39062,-0.0585938,0.0273438
-8175190399705274008,-0.046875,0.166016,-0.441406,2.5,-0.519531,-0.164062
-8175190399696262008,-0.046875,0.166016,-0.441406,2.34766,-0.597656,-0.0117188
-8175190399684562008,-0.046875,0.166016,-0.441406,1.19922,-0.222656,-0.0507812
-8175190399675568008,-0.046875,0.166016,-0.441406,-0.0664062,-0.0742188,0.101562
-8401290363028384008,-0.046875,0.166016,-0.441406,-0.0664062,-0.0742188,0.101562
-8414656301243737008,-0.046875,0.166016,-0.441406,-0.0664062,-0.0742188,0.101562
-8414656301236077008,-0.046875,0.166016,-0.441406,-4.01172,0.199219,0.640625
-8414656301227920008,-0.046875,0.166016,-0.441406,-0.601562,-0.289062,-0.0507812
-8414656301219104008,-0.046875,0.166016,-0.441406,-1.90234,-0.0976562,-0.242188
-8339210905689734008,-0.046875,0.166016,-0.441406,-1.90234,-0.0976562,-0.242188
-8339210905681754008,-0.046875,0.166016,-0.441406,-2.40234,0.246094,0.0664062
-8339210905667038008,-0.046875,0.166016,-0.441406,-1.36719,-0.0195312,0.101562
-8339210905658944008,-0.046875,0.166016,-0.441406,-0.332031,-0.472656,0.101562
-8339210905648273008,-0.046875,0.166016,-0.441406,1.59766,-0.933594,0.0664062
-8339210905640166008,-0.046875,0.166016,-0.441406,2.63281,-0.941406,0.5625
-8339210905631395008,-0.046875,0.166016,-0.441406,4.08594,-0.199219,0.753906
-8339210905621898008,-0.046875,0.166016,-0.441406,2.40234,0.40625,0.601562
-7953544317268965008,-0.046875,0.166016,-0.441406,2.40234,0.40625,0.601562
-7953544317262780008,-0.046875,0.166016,-0.441406,1.17578,0.230469,-0.554688
-7947874960424665008,-0.046875,0.166016,-0.441406,1.17578,0.230469,-0.554688
-7947874960418193008,-0.046875,0.166016,-0.441406,0.992188,0.425781,-0.480469
-7947874960409120008,-0.046875,0.166016,-0.441406,0.761719,0.417969,-0.328125
-7947874960404063008,-0.046875,0.166016,-0.441406,0.496094,0.496094,-0.402344
-7947874960392871008,-0.046875,0.166016,-0.441406,0.304688,0.542969,-0.25
-7947874960384772008,-0.046875,0.166016,-0.441406,0.0273438,0.703125,-0.136719
-7947874960371785008,-0.046875,0.166016,-0.441406,-0.355469,0.605469,0.0195312
-7947874960363693008,-0.046875,0.166016,-0.441406,-0.554688,0.65625,-0.136719
-7947874960355615008,-0.046875,0.166016,-0.441406,-0.746094,0.835938,-0.441406
-7947874960346885008,-0.046875,0.166016,-0.441406,-0.898438,0.820312,-0.394531
-8278389873635997008,-0.046875,0.166016,-0.441406,-0.898438,0.820312,-0.394531
-8278389873629834008,-0.046875,0.166016,-0.441406,-0.21875,-0.199219,-0.128906
-8278389873624823008,-0.046875,0.166016,-0.441406,-0.257812,-2.71094,3.66406
-8278389873619678008,-0.046875,0.166016,-0.441406,-0.296875,-1.82812,-1.08594
-8278389873609363008,-0.046875,0.166016,-0.441406,-0.792969,-0.640625,0.714844
-8278389873603159008,-0.00195312,0.00195312,0.00195312,-0.792969,-0.640625,0.714844
-8335817881307304008,-0.00195312,0.00195312,0.00195312,-0.792969,-0.640625,0.714844
-8335817881297204008,-0.00195312,0.00195312,0.00195312,0.0507812,-0.0273438,-0.0507812
-8335817881288728008,-0.00195312,0.00195312,0.00195312,0.0507812,-0.0273438,-0.0507812
-8337784976301170008,-0.00195312,0.00195312,0.00195312,0.0507812,-0.0273438,-0.0507812
-8337784976295233008,-0.00195312,0.00195312,0.00195312,0.0117188,0.046875,-0.0117188
-8337784976287540008,-0.00195312,0.00195312,0.00195312,0.0117188,0.046875,-0.0117188
-8337784976280428008,-0.00195312,0.00195312,0.00195312,0.0507812,-0.0273438,-0.0195312
-8337737731630911008,-0.00195312,0.00195312,0.00195312,0.0507812,-0.0273438,-0.0195312
-8337737731621003008,-0.00195312,0.00195312,0.00195312,0.0507812,0.046875,0.0195312
-8337737731612204008,-0.00195312,0.00195312,0.00195312,0.0507812,0.046875,-0.0195312
-8337737731603816008,-0.00195312,0.00195312,0.00195312,0.0117188,0.046875,-0.0195312
-8337737731594743008,-0.00195312,0.00195312,0.00195312,0.0585938,0.0078125,0.0195312
-8337784976226671008,-0.00195312,0.00195312,0.00195312,0.0585938,0.0078125,0.0195312
-8337784976220109008,-0.00195312,0.00195312,0.00195312,0.0585938,0.0078125,-0.0585938
-8337784976214267008,-0.00195312,-0.00585938,-0.00195312,0.0585938,0.0078125,-0.0585938
-8337784976206433008,-0.00195312,-0.00585938,-0.00195312,0.0976562,0.0078125,0.0195312
-8337784976201574008,-0.00195312,-0.00585938,-0.00195312,0.0585938,0.0078125,-0.0195312
-8337784976196722008,-0.00195312,-0.00585938,-0.00195312,0.0585938,0.046875,-0.0195312
-8337784976190952008,-0.00195312,-0.00585938,-0.00195312,0.0195312,0.0078125,-0.0585938
-8337784976185849008,-0.00195312,-0.00585938,-0.00195312,0.0585938,0.0859375,-0.0585938
-8337784976179015008,-0.00195312,-0.00585938,-0.00195312,0.0585938,0.046875,-0.0585938
-8337784976172941008,-0.00195312,-0.00585938,-0.00195312,0.0195312,0.046875,-0.0195312
-8337784976164901008,-0.00195312,-0.00585938,-0.00195312,0.0195312,0.046875,-0.0585938
-8337737731517335008,-0.00195312,-0.00585938,-0.00195312,0.0195312,0.046875,-0.0585938
-8337737731510932008,-0.00195312,-0.00585938,-0.00195312,0.0585938,0.0078125,-0.0195312
-8337737731505977008,-0.00195312,-0.00585938,-0.00195312,0.0195312,0.046875,-0.0585938
-8337737731501103008,-0.00195312,-0.00585938,-0.00195312,0.0585938,0.0078125,-0.0195312
-8337737731493177008,-0.00195312,-0.00585938,-0.00195312,0.0195312,0.046875,-0.0585938
-8337737731487588008,-0.00195312,-0.00585938,-0.00195312,0.0585938,0.046875,-0.0195312
-8337737731474154008,-0.00195312,-0.00585938,-0.00195312,0.0585938,0.046875,-0.0585938
-8337737731462148008,-0.00195312,-0.00585938,-0.00195312,0.0117188,0.046875,-0.0195312
-8337737731446209008,-0.00195312,-0.00585938,-0.00195312,0.0507812,0.046875,0.0195312
-8337737731435323008,-0.00195312,-0.00585938,-0.00195312,0.0507812,0.046875,0.0195312
-8337737731425288008,-0.00195312,0.00195312,0,0.0507812,0.046875,0.0195312
-8337737731417824008,-0.00195312,0.00195312,0,0.0507812,0.046875,-0.0195312
-8337737731408918008,-0.00195312,0.00195312,0,0.0507812,0.0078125,-0.0195312
-8337737731400180008,-0.00195312,0.00195312,0,0.0507812,0.046875,-0.0585938
-8339648991838571008,-0.00195312,0.00195312,0,0.0507812,0.046875,-0.0585938
-8339648991831429008,-0.00195312,0.00195312,0,0.0507812,0,0.0195312
-8339648991824122008,-0.00195312,0.00195312,0,0.0507812,0,0.0195312
-8339648991817746008,-0.00195312,0.00195312,0,0.0507812,0,-0.0585938
-8339648991812617008,-0.00195312,0.00195312,0,0.0507812,0.0390625,0.0195312
-8339648991803901008,-0.00195312,0.00195312,0,0.0507812,0.0390625,-0.0195312
-8339648991794379008,-0.00195312,0.00195312,0,0.00390625,0.0078125,-0.00390625
-8339648991786092008,-0.00195312,0.00195312,0,0.00390625,0.0078125,0.0351562
-8337677601786346008,-0.00195312,0.00195312,0,0.00390625,0.0078125,0.0351562
-8337677601779056008,-0.00195312,0.00195312,0,0.00390625,0.0078125,-0.00390625
-8337677601770318008,-0.00195312,0.00195312,0,0.00390625,0.0078125,0.0351562
-8337677601759167008,-0.00195312,0.00195312,0,0.00390625,0.0078125,0.0351562
-8337677601749050008,-0.00195312,0.00195312,0,0.00390625,0.0078125,-0.00390625
-8337677601740643008,-0.00195312,0.00195312,0,0.0429688,0.0078125,-0.0429688
-8337677601729589008,-0.00195312,0.00195312,0,0.00390625,0.0078125,-0.00390625
-8337677601720249008,-0.00195312,0.00195312,0,0.0429688,0.0078125,-0.00390625
-8337677601711532008,-0.00195312,0.00195312,0,-0.0351562,0.0078125,-0.00390625
-8337677601702008008,-0.00195312,0.00195312,0,0.00390625,0.0078125,-0.00390625
-8337630357053986008,-0.00195312,0.00195312,0,0.00390625,0.0078125,-0.00390625
-8337630357048170008,-0.00195312,0.00195312,0,0.00390625,0.0078125,-0.00390625
-8337630357040202008,-0.00195312,0.00195312,0,0.00390625,0.0078125,-0.00390625
-8337630357034737008,-0.00195312,0.00195312,0,0.00390625,-0.03125,-0.00390625
-8337630357025390008,-0.00195312,0.00195312,0,0.00390625,-0.03125,-0.00390625
-8337630357016776008,-0.00195312,0.00195312,0,0.00390625,0.046875,-0.00390625
-8337737731191913008,-0.00195312,0.00195312,0,0.00390625,0.046875,-0.00390625
-8337737731186025008,-0.00195312,0.00195312,0,-0.0351562,0.0078125,-0.00390625
-8337737731178480008,-0.00195312,0.00195312,0,0.00390625,0.0078125,0.0351562
-8337737731173076008,-0.00195312,0.00195312,0,-0.0351562,0.0078125,-0.0429688
-8337737731164224008,-0.00195312,0.00195312,0,-0.0351562,-0.03125,-0.00390625
-8337690486514373008,-0.00195312,0.00195312,0,-0.0351562,-0.03125,-0.00390625
-8337690486508546008,-0.00195312,0.00195312,0,0.00390625,0.0078125,-0.00390625
-8337690486499766008,-0.00195312,0.00195312,0,0.00390625,-0.03125,0.0351562
-8335719096503676008,-0.00195312,0.00195312,0,0.00390625,-0.03125,0.0351562
-8335719096494511008,-0.00195312,0.00195312,0,0.00390625,0.0078125,0.0351562
-8335719096488258008,-0.00195312,0.00195312,0,0.00390625,-0.03125,-0.0429688
-8335719096479501008,-0.00195312,0.00195312,0,0.0429688,-0.03125,-0.00390625
-8335719096470732008,-0.00195312,0.00195312,0,0.00390625,0.0078125,-0.00390625
-8337737731092458008,-0.00195312,0.00195312,0,0.00390625,0.0078125,-0.00390625
-8337737731085891008,-0.00195312,0.00195312,0,0.00390625,0.0078125,-0.00390625
-8337737731081003008,-0.00195312,0.00195312,0,0.00390625,-0.03125,0.0351562
-8337737731075938008,-0.00195312,0.00195312,0,0.00390625,0.0078125,0.0351562
-8337737731069831008,-0.00195312,0.00195312,0,-0.0351562,0.0078125,-0.00390625
-8337737731063799008,0,0,0.00390625,-0.0351562,0.0078125,-0.00390625
-8337737731055975008,0,0,0.00390625,0.00390625,0.0078125,-0.00390625
-8337737731051120008,0,0,0.00390625,-0.0351562,0.0078125,0.0351562
-8337737731045629008,0,0,0.00390625,0.00390625,-0.03125,-0.00390625
-8337737731038837008,0,0,0.00390625,0.00390625,0.0078125,0.0351562
-8337690486390660008,0,0,0.00390625,0.00390625,0.0078125,0.0351562
-8337690486384810008,0,0,0.00390625,0.00390625,0.0078125,-0.00390625
-8337690486378181008,0,0,0.00390625,0.00390625,0.0078125,-0.00390625
-8337690486371571008,0.00390625,0,0.00390625,0.00390625,0.0078125,-0.00390625
-8337690486360970008,0.00390625,0,0.00390625,0.00390625,-0.03125,0.0351562
-8337690486352657008,0.00390625,0,0.00390625,-0.0351562,-0.03125,0.0742188
-8337690486342420008,0.00390625,0,0.00390625,0.00390625,0.0078125,-0.00390625
-8337690486331814008,0.00390625,0,0.00390625,0.00390625,-0.03125,-0.00390625
-8337690486318961008,0.00390625,0,0.00390625,0.00390625,0.0078125,-0.00390625
-8337690486309831008,0.00390625,0,0.00390625,-0.0351562,-0.03125,-0.00390625
-8337690486300227008,-0.00585938,0,0,-0.0351562,-0.03125,-0.00390625
-8337690486292940008,-0.00585938,0,0,0.00390625,-0.03125,-0.00390625
-8337690486284191008,-0.00585938,0,0,-0.0351562,-0.03125,0.0351562
-8337857990000901008,-0.00585938,0,0,-0.0351562,-0.03125,0.0351562
-8337857989993481008,-0.00585938,0,0,-0.0351562,0.015625,-0.00390625
-8337857989987688008,-0.00585938,0,0,-0.0351562,-0.0234375,-0.00390625
-8337857989979386008,-0.00585938,0,0,-0.0351562,-0.0234375,-0.00390625
-8337857989969491008,-0.00585938,0,0,-0.0351562,0.015625,-0.00390625
-8337857989961366008,-0.00585938,0,0,-0.0351562,0.015625,0.0351562
-8337857989953074008,-0.00585938,0,0,0.00390625,0.015625,-0.00390625
-8337857989944326008,-0.00585938,0,0,0.00390625,0.015625,-0.00390625
-8337750615754701008,-0.00585938,0,0,0.00390625,0.015625,-0.00390625
-8337750615748079008,-0.00585938,0,0,0.0117188,0.015625,-0.00390625
-8337750615742392008,-0.00585938,0,0,0.0117188,0.015625,-0.00390625
-8337750615733236008,-0.00585938,0,0,0.0117188,-0.0234375,-0.00390625
-8337750615726485008,0,-0.00195312,0,0.0117188,-0.0234375,-0.00390625
-8337690486174401008,0,-0.00195312,0,0.0117188,-0.0234375,-0.00390625
-8337690486167478008,0,-0.00195312,0,-0.0273438,0.015625,0.0351562
-8337690486159230008,0,-0.00195312,0,0.0117188,0.015625,-0.00390625
-8337690486151122008,0,-0.00195312,0,0.0117188,0.015625,-0.00390625
-8337690486144769008,0,-0.00195312,0,-0.0273438,0.015625,0.0351562
-8337690486139036008,0,-0.00195312,0,0.0507812,0.015625,-0.0429688
-8337690486131751008,0,-0.00195312,0,0.0507812,0.015625,-0.0429688
-8337690486125824008,0,-0.00195312,0,0.0117188,0.015625,-0.0429688
-8337690486117483008,0,-0.00195312,0,0.0117188,-0.0234375,-0.00390625
-8337690486111955008,0,-0.00195312,0,0.0117188,0.0078125,-0.00390625
-8337690486103663008,0,-0.00195312,0,0.0117188,0.0078125,-0.00390625
-8337630356552982008,0,-0.00195312,0,0.0117188,0.0078125,-0.00390625
-8337630356547115008,0,-0.00195312,0,0.0507812,0.0078125,-0.00390625
-8337630356539826008,0,-0.00195312,0,0.0507812,0.0078125,-0.00390625
-8337630356533241008,0,-0.00195312,0,0.0507812,0.0078125,0.0351562
-8337630356526417008,0,-0.00195312,0,0.00390625,0.0078125,-0.00390625
-8337630356520648008,0,-0.00195312,0,0.00390625,-0.03125,0.0351562
-8337630356512014008,0,-0.00195312,0,0.00390625,0.0078125,-0.00390625
-8337630356502355008,0,-0.00195312,0,0.00390625,0.0078125,-0.00390625
-8337630356496517008,0,-0.00195312,0,0.00390625,-0.03125,-0.0429688
-8335658966497483008,0,-0.00195312,0,0.00390625,-0.03125,-0.0429688
-8335658966488639008,0,-0.00195312,0,0.00390625,-0.03125,-0.0429688
-8335658966480001008,0,-0.00195312,0,0.00390625,-0.03125,-0.0429688
-8335658966473844008,0,-0.00195312,0,0.00390625,-0.03125,-0.0429688
-8335658966468686008,0,-0.00195312,0,0.00390625,-0.03125,0.0351562
-8335658966462510008,-0.00195312,0,0,0.00390625,-0.03125,0.0351562
-8335658966454611008,-0.00195312,0,0,-0.0351562,0.0078125,-0.00390625
-8335658966448603008,-0.00195312,0,0,0.0429688,-0.03125,-0.0429688
-8335658966442791008,-0.00195312,0.00195312,0.00195312,0.0429688,-0.03125,-0.0429688
-8337630356422162008,-0.00195312,0.00195312,0.00195312,0.0429688,-0.03125,-0.0429688
-8335658966425073008,-0.00195312,0.00195312,0.00195312,0.0429688,-0.03125,-0.0429688
-8335658966418594008,-0.00195312,0.00195312,0.00195312,0.00390625,0.0078125,-0.00390625
-8335658966413258008,-0.00195312,0.00195312,0.00195312,0.00390625,0.0078125,-0.00390625
-8335658966404784008,-0.00195312,0,-0.00585938,0.00390625,0.0078125,-0.00390625
-8335658966397092008,-0.00195312,0,-0.00585938,0.00390625,0.0078125,-0.00390625
-8337630356377859008,-0.00195312,0,-0.00585938,0.00390625,0.0078125,-0.00390625
-8337630356371995008,-0.00195312,0,-0.00585938,-0.0351562,-0.03125,0.0351562
-8335658966374867008,-0.00195312,0,-0.00585938,-0.0351562,-0.03125,0.0351562
-8335658966368899008,-0.00195312,0,-0.00585938,0.00390625,0.0078125,-0.00390625
-8335658966359177008,-0.00195312,0.00195312,0.00390625,0.00390625,0.0078125,-0.00390625
-8335598836810769008,-0.00195312,0.00195312,0.00390625,0.00390625,0.0078125,-0.00390625
-8335658966344610008,-0.00195312,0.00195312,0.00390625,0.00390625,0.0078125,-0.00390625
-8335658966338780008,-0.00195312,0.00195312,0.00390625,0.00390625,-0.03125,-0.00390625
-8335658966331499008,0.00195312,0,-0.00195312,0.00390625,-0.03125,-0.00390625
-8335658966324575008,0.00195312,0,-0.00195312,0.00390625,-0.03125,-0.00390625
-8335658966318752008,0.00195312,0,-0.00195312,0.00390625,-0.03125,-0.00390625
-8335658966312883008,0.00195312,0,0.00195312,0.00390625,-0.03125,-0.00390625
-8335658966306520008,0.00195312,0,0.00195312,0.00390625,-0.03125,-0.00390625
-8335658966298364008,0.00195312,0,0.00195312,0.00390625,-0.0234375,-0.00390625
-8335658966291055008,0.00195312,0,0.00195312,0.00390625,0.015625,-0.0429688
-8335658966280716008,0.00195312,0,0.00195312,0.00390625,0.015625,-0.0429688
-8335658966271432008,0.00195312,0,0.00195312,0.00390625,0.015625,-0.00390625
-8335658966262706008,0.00195312,0,0.00195312,0.00390625,-0.0234375,0.0351562
-8335658966253981008,0.00195312,0,0.00195312,-0.0351562,0.015625,-0.00390625
-8335658966249075008,0.00195312,0,0.00195312,0.00390625,0.015625,-0.00390625
-8335658966244162008,0.00195312,0,0.00195312,0.00390625,-0.0234375,-0.00390625
-8335658966239244008,0.00195312,0,0.00195312,-0.0351562,-0.0234375,-0.00390625
-8335658966234370008,0.00195312,0,0.00195312,-0.0351562,0.015625,-0.00390625
-8335658966227904008,0.00195312,0,0.00195312,0.00390625,0.015625,0.0351562
-8335658966222872008,0.00195312,0,0.00195312,-0.0351562,-0.0234375,-0.00390625
-8337583111563448008,0.00195312,0,0.00195312,-0.0351562,-0.0234375,-0.00390625
-8337583111557618008,0.00195312,0,0.00195312,0.00390625,-0.0234375,0.0351562
-8337583111549620008,0,0,0,0.00390625,-0.0234375,0.0351562
-8337583111541013008,0,0,0,0.00390625,-0.0234375,0.0351562
-8337583111534512008,0,0,0,0.00390625,0.015625,-0.00390625
-8337583111519805008,0,0,0,-0.0351562,0.015625,-0.00390625
-8337583111508731008,0,0,0,-0.0351562,0.015625,-0.00390625
-8337583111499509008,0,0,0,0.0117188,-0.0234375,-0.00390625
-8337583111487540008,0,0,0,0.0117188,-0.0234375,-0.00390625
-8337583111479147008,0,0,0,0.0117188,0.015625,-0.00390625
-8337583111470956008,0,0,0,-0.0273438,0.015625,-0.00390625
-8337583111461489008,0,0,0,0.0117188,0.015625,-0.00390625
-8337583111453422008,0,0,0,0.0117188,0.015625,-0.00390625
-8337583111447504008,0,0,0,0.0117188,0.015625,0.0351562
-8337583111439496008,0,0,0,0.0117188,0.015625,0.0351562
-8337583111431808008,0,0,0,0.0117188,0.015625,0.0351562
-8337583111424888008,0,0,0,0.0507812,0.015625,-0.00390625
-8337583111415221008,0,0,0,0.0117188,-0.0234375,0.0351562
-8337583111406568008,0,0,0,0.0117188,0.0546875,-0.00390625
-8337583111398004008,0,0,0,0.0117188,0.0546875,-0.00390625
-8337583111391997008,0,0,0,-0.0273438,0.015625,0.0351562
-8337583111380921008,0,0,0,-0.0273438,0.015625,0.0351562
-8337583111368705008,0,0,0,0.0117188,0.015625,-0.0429688
-8337583111357273008,0,0,0,0.0507812,-0.0234375,-0.00390625
-8337583111349124008,0,0,0,0.0117188,0.015625,0.0351562
-8337583111340989008,0,0,0,0.0117188,-0.0234375,-0.00390625
-8337583111331825008,0,0,0,0.0117188,0.0546875,-0.0429688
-8337583111323690008,0,0,0,0.0117188,0.0546875,-0.0429688
-8337583111314479008,0,0,0,0.0117188,-0.0234375,0.00390625
-8337583111308909008,0,0,0,0.0117188,0.015625,0.00390625
-8337583111297025008,0,0,0,0.0117188,-0.0234375,0.00390625
-8337583111287561008,0,0,0,-0.0273438,-0.0234375,-0.0351562
-8337583111279411008,0,0,0,-0.0273438,0.015625,0.0429688
-8337583111268124008,0,0,0,0.0507812,0.015625,0.00390625
-8337583111259946008,0,0,0,0.0117188,0.015625,-0.0351562
-8337583111251817008,0,0,0,-0.0273438,-0.0234375,0.00390625
-8337583111243928008,0,0,0,-0.0273438,-0.0234375,0.00390625
-8337583111237329008,0,0,0,-0.0273438,-0.0234375,0.00390625
-8337583111226052008,0,0,0,-0.0273438,-0.0234375,0.00390625
-8337583111215620008,0,0,0,0.0117188,-0.0234375,0.00390625
-8337583111205561008,0,0,0,0.0117188,0.015625,0.0429688
-8337583111193006008,0,0,0,0.0507812,0.015625,0.0429688
-8337583111183771008,0,0,0,0.0117188,0.015625,0.00390625
-8337583111174048008,0,0,0,0.0117188,0.015625,0.00390625
-8337583111164243008,0,0,0,0.0117188,0.015625,0.0429688
-8337583111155578008,0,0,0,0.0117188,0.015625,0.00390625
-8337583111146905008,0,0,0,0.0117188,-0.0234375,0.00390625
-8337583111139485008,0,0,0,0.0117188,-0.0234375,0.00390625
-8337583111133129008,0,0,0,-0.0273438,0.015625,0.00390625
-8337583111126565008,0,0,0,0.0117188,0.015625,-0.0351562
-8337583111120701008,0,0,0,-0.0273438,0.015625,0.00390625
-8337583111111804008,0,0,0,-0.0273438,0.015625,0.0429688
-8337583111103084008,0,0,0,-0.0273438,0.015625,0.0429688
-8337583111096434008,0,0,0,-0.0273438,0.015625,0.0820312
-8337583111087684008,0,0,0,-0.0273438,0.015625,0.0820312
-8337583111081765008,0,0,0,-0.0273438,0.015625,0.0429688
-8337583111074206008,0,0,0,-0.0273438,0.015625,0.0429688
-8337583111067947008,0,0,0,0.0507812,0.015625,-0.00390625
-8337583111057322008,0,0,0,0.0117188,-0.0234375,-0.00390625
-8337583111049620008,0,0,0,0.0117188,-0.0234375,-0.00390625
-8337583111038045008,0,0,0,0.0117188,0.015625,-0.0429688
-8337583111029907008,0,0,0,0.0117188,-0.03125,-0.00390625
-8337583111020798008,0,0,0,0.0117188,0.015625,-0.00390625
-8337583111010929008,0,0,0,0.0117188,-0.0234375,-0.00390625
-8337583110999880008,0,0,0,0.0117188,-0.0234375,-0.00390625
-8337583110993406008,0,0,0,0.0507812,0.0078125,0.0351562
-8337583110984806008,0,0,0,0.0117188,-0.03125,0.0351562
-8337583110976471008,0,0,0,-0.0273438,0.0078125,-0.00390625
-8337583110969147008,0,0,0,-0.0273438,0.0078125,-0.00390625
-8337583110963072008,0,0,0,-0.0273438,0.046875,-0.00390625
-8337583110958083008,0,0,0,0.0117188,0.0078125,0.0351562
-8337583110953186008,0,0,0,-0.0273438,0.0078125,-0.00390625
-8337583110948269008,0,0,0,0.0117188,0.0078125,-0.00390625
-8337583110941875008,0,0,0,0.0117188,-0.03125,0.0351562
-8337583110936634008,0,0,0,0.0117188,0.0078125,-0.00390625
-8337583110928915008,0,0,0,0.0117188,0.0078125,-0.00390625
-8337583110920512008,0,0,0,0.0507812,0.0078125,-0.0429688
-8337583110914507008,0,0,0,0.0117188,-0.03125,0.0351562
-8337583110905077008,0,0,0,0.0117188,0.0078125,-0.00390625
-8337583110892090008,0,0,0,0.0117188,0.0078125,-0.00390625
-8337630355520307008,0,0,0,0.0117188,0.0078125,-0.00390625
-8337630355510729008,0,0,0,0.0117188,-0.03125,0.0351562
-8337630355497201008,0,0,0,0.0117188,0.0078125,-0.00390625
-8337630355488615008,0,0,0,0.0117188,0.0078125,-0.00390625
-8337630355480495008,0,0,0,0.0117188,0.0078125,-0.00390625
-8337630355471692008,0,0,0,0.0117188,0.0078125,0.0351562
-8335598835933381008,0,0,0,0.0117188,0.0078125,0.0351562
-8335598835927320008,0,0,0,0.0117188,0.0078125,-0.00390625
-8335598835921770008,0,0,0,0.0117188,-0.03125,0.0742188
-8335598835911630008,-0.00195312,0.00195312,0,0.0117188,-0.03125,0.0742188
-8335598835903606008,-0.00195312,0.00195312,0,0.0117188,0.0078125,0.0351562
-8335598835894787008,-0.00195312,0.00195312,0,0.0117188,0.0078125,0.0351562
-8335598835884340008,-0.00195312,0.00195312,0,0.0117188,-0.03125,-0.00390625
-8335658965418749008,-0.00195312,0.00195312,0,0.0117188,-0.03125,-0.00390625
-8335658965408853008,-0.00195312,0.00195312,0,0.0117188,0.0078125,-0.0429688
-8335658965401548008,-0.00195312,0.00195312,0,0.0117188,0.0078125,-0.0429688
-8335658965391857008,-0.00195312,0.00195312,0,0.00390625,0.0078125,-0.00390625
-8335658965382068008,-0.00195312,0.00195312,0,0.00390625,0.0078125,-0.00390625
-8335658965371531008,-0.00195312,0.00195312,0,0.00390625,0.0078125,0.0351562
-8335611720722319008,-0.00195312,0.00195312,0,0.00390625,0.0078125,0.0351562
-8333580201180205008,-0.00195312,0.00195312,0,0.00390625,0.0078125,0.0351562
-8333580201168705008,-0.00195312,0.00195312,0,0.00390625,0.0078125,0.0351562
-8333580201160231008,-0.00195312,0.00195312,0,0.00390625,-0.03125,0.0351562
-8333580201151472008,-0.00195312,0.00195312,0,0.00390625,0.0078125,0.0351562
-8335611720674528008,-0.00195312,0.00195312,0,0.00390625,0.0078125,0.0351562
-8335611720668557008,-0.00195312,0.00195312,0,-0.0351562,0.0078125,-0.00390625
-8335611720659079008,0.00390625,-0.00195312,0.0078125,-0.0351562,0.0078125,-0.00390625
-8335611720650703008,0.00390625,-0.00195312,0.0078125,0.00390625,0.0078125,0.0351562
-8333640330653990008,0.00390625,-0.00195312,0.0078125,0.00390625,0.0078125,0.0351562
-8333640330644327008,0.00390625,-0.00195312,0.0078125,0.00390625,0.0078125,0.0351562
-8333640330638128008,0.00390625,-0.00195312,0.0078125,0.00390625,-0.03125,0.0351562
-8333640330627865008,0.00390625,-0.00195312,0.0078125,0.00390625,-0.03125,-0.00390625
-8333640330619005008,0.00390625,-0.00195312,0.0078125,0.0429688,-0.03125,-0.00390625
-8333640330611642008,0.00390625,-0.00195312,0.0078125,0.0429688,-0.03125,-0.00390625
-8333640330601425008,0.00390625,-0.00195312,0.0078125,0.00390625,-0.03125,-0.0429688
-8333640330595998008,0.00390625,-0.00195312,0.0078125,0.00390625,-0.03125,-0.00390625
-8333640330586977008,0.00390625,-0.00195312,0.0078125,0.00390625,0.0078125,-0.00390625
-8333640330578848008,0.00390625,-0.00195312,0.0078125,0.00390625,-0.03125,0.0351562
-8331621695940635008,0.00390625,-0.00195312,0.0078125,0.00390625,-0.03125,0.0351562
-8331621695934558008,0.00390625,-0.00195312,0.0078125,0.00390625,0.0078125,-0.00390625
-8331621695926673008,0.00390625,-0.00195312,0.0078125,0.00390625,0.0078125,-0.00390625
-8331621695920740008,0.00390625,-0.00195312,0.0078125,0.00390625,0.0078125,-0.00390625
-8331621695915637008,0.00390625,-0.00195312,0.0078125,-0.0351562,0.0078125,0.0351562
-8331621695908973008,0.00390625,-0.00195312,0.0078125,0.00390625,0.0078125,-0.0429688
-8331621695900154008,0.00390625,-0.00195312,0.0078125,0.00390625,0.0078125,-0.00390625
-8331621695892980008,0.00390625,0.00195312,0,0.00390625,0.0078125,-0.00390625
-8331621695885596008,0.00390625,0.00195312,0,0.00390625,0.0078125,-0.00390625
-8331621695876405008,0.00390625,0.00195312,0,0.0429688,-0.03125,-0.00390625
-8331621695863982008,0.00390625,0.00195312,0,0.00390625,-0.03125,-0.00390625
-8333640330481926008,0.00390625,0.00195312,0,0.00390625,-0.03125,-0.00390625
-8333640330469709008,0.00390625,0.00195312,0,0.00390625,0.0078125,-0.0429688
-8333640330460654008,0.00390625,0.00195312,0,0.0429688,0.046875,-0.00390625
-8333640330452530008,0.00390625,0.00195312,0,0.00390625,0.0078125,-0.00390625
-8333640330443711008,0.00390625,0.00195312,0,0.00390625,0.0078125,-0.00390625
-8335611720423619008,0.00390625,0.00195312,0,0.00390625,0.0078125,-0.00390625
-8335611720415100008,0.00390625,0.00195312,0,0.00390625,0.0078125,-0.0429688
-8335500051257694008,0.00390625,0.00195312,0,0.00390625,0.0078125,-0.0429688
-8335551590852588008,0.00390625,0.00195312,0,0.00390625,0.0078125,-0.0429688
-8335500051236168008,0.00390625,0.00195312,0,0.00390625,0.0078125,-0.0429688
-8335500051226249008,0.00390625,0.00195312,0,0.00390625,0.0078125,0.0351562
-8335500051217505008,0.00390625,0.00195312,0,0.00390625,0.0078125,-0.00390625
-8333580200826643008,0.00390625,0.00195312,0,0.00390625,0.0078125,-0.00390625
-8333580200820678008,0.00390625,0.00195312,0,0.00390625,0.0078125,-0.00390625
-8333580200811216008,0.00390625,0.00195312,0,0.00390625,0.0078125,-0.00390625
-8335611720333370008,0.00390625,0.00195312,0,0.00390625,0.0078125,-0.00390625
-8335611720327484008,0.00390625,0.00195312,0,0.0117188,0.0078125,0.0351562
-8335611720320268008,0.00390625,0.00195312,0,0.0117188,0.0078125,0.0351562
-8335611720312985008,0.00390625,0.00195312,0,0.0117188,0.0078125,-0.00390625
-8335611720307843008,0.00390625,0.00195312,0,0.0117188,-0.03125,-0.00390625
-8335551590757469008,0.00390625,0.00195312,0,0.0117188,-0.03125,-0.00390625
-8335551590747615008,0.00390625,0.00195312,0,-0.0351562,0.0078125,-0.00390625
-8335551590741919008,0.00390625,0.00195312,0,0.00390625,0.0078125,-0.00390625
-8335551590732531008,0.00390625,0.00195312,0,-0.0351562,0.0078125,-0.0429688
-8335551590722325008,0.00390625,0.00195312,0,0.0117188,-0.03125,-0.00390625
-8335551590714197008,0.00390625,0.00195312,0,0.0507812,0.0078125,-0.00390625
-8335551590705227008,0.00390625,0.00195312,0,-0.0273438,0.0078125,-0.0429688
-8335551590696924008,0.00390625,0.00195312,0,-0.0273438,0.0078125,-0.0429688
-8335551590690508008,0.00390625,0.00195312,0,0.0117188,0.0078125,-0.00390625
-8335551590682528008,0.00390625,0.00195312,0,0.0117188,0.0078125,-0.00390625
-8335551590676595008,0.00390625,0.00195312,0,0.0117188,0.0078125,0.00390625
-8335551590671594008,0.00390625,0.00195312,0,0.0117188,0.0078125,0.00390625
-8335551590664126008,0.00390625,0.00195312,0,-0.0273438,0.0078125,0.00390625
-8335551590653754008,0.00390625,0.00195312,0,-0.0273438,0.0078125,0.00390625
-8335551590642338008,0.00390625,0.00195312,0,0.0117188,0.0078125,0.00390625
-8335551590629454008,0.00390625,0.00195312,0,-0.0273438,0.0078125,0.00390625
-8335551590617202008,0.00390625,0.00195312,0,0.0117188,0.0078125,0.00390625
-8335551590608973008,0.00390625,0.00195312,0,0.0117188,0.0078125,0.0429688
-8335551590600026008,0.00390625,0.00195312,0,0.0117188,0.0078125,0.0429688
-8335551590590588008,0.00390625,0.00195312,0,0.0117188,0.0078125,0.0429688
-8335551590582539008,0.00390625,0.00195312,0,0.0507812,0.0078125,0.00390625
-8335551590573220008,0.00390625,0.00195312,0,0.0117188,0.0078125,-0.0351562
-8335551590564965008,0.00390625,0.00195312,0,0.0117188,0.0078125,0.00390625
-8335551590556985008,0.00390625,0.00195312,0,0.0117188,0.0078125,0.00390625
-8335551590550103008,0.00390625,0.00195312,0,0.00390625,0.0078125,0.00390625
-8335551590540500008,0.00390625,0.00195312,0,0.00390625,-0.03125,-0.0351562
-8335551590527651008,0.00390625,0.00195312,0,0.00390625,-0.03125,-0.0351562
-8335551590521748008,0.00390625,0.00195312,0,0.00390625,0.0078125,0.0429688
-8335551590513568008,0.00390625,0.00195312,0,0.00390625,-0.03125,0.00390625
-8335551590501537008,0.00390625,0.00195312,0,0.00390625,-0.03125,0.0429688
-8335598835134467008,0.00390625,0.00195312,0,0.00390625,-0.03125,0.0429688
-8335598835124880008,0.00390625,0.00195312,0,0.00390625,0.0078125,-0.0351562
-8335598835116101008,0.00390625,0.00195312,0,0.00390625,0.0078125,0.00390625
-8335598835108777008,0.00390625,0.00195312,0,0.00390625,0.0078125,0.00390625
-8335598835098603008,0.00390625,0.00195312,0,0.00390625,0.0078125,0.00390625
-8335598835089906008,0.00390625,0.00195312,0,-0.0351562,0.0078125,0.00390625
-8335598835081085008,0.00390625,0.00195312,0,-0.0351562,0.0078125,0.00390625
-8335598835071929008,0.00390625,0.00195312,0,-0.0351562,0.0078125,0.00390625
-8335598835066040008,0.00390625,0.00195312,0,0.00390625,0.0078125,0.0429688
-8335598835058782008,0.00390625,0.00195312,0,0.00390625,0.0078125,0.0429688
-8335598835051736008,0.00390625,0.00195312,0,0.00390625,0.0078125,0.00390625
-8335598835044687008,0.00390625,0.00195312,0,0.00390625,-0.03125,0.00390625
-8335598835035916008,0.00390625,0.00195312,0,0.00390625,0.046875,0.00390625
-8335551590388343008,0.00390625,0.00195312,0,0.00390625,0.046875,0.00390625
-8335551590381394008,0.00390625,0.00195312,0,0.00390625,0.0078125,0.00390625
-8335551590376999008,0.00390625,0.00195312,0,0.00390625,0.0078125,0.00390625
-8335551590370533008,0.00390625,0.00195312,0,0.00390625,0.0078125,0.00390625
-8335551590363491008,0.00390625,0.00195312,0,0.00390625,0.0078125,-0.0351562
-8335551590354649008,0.00390625,0.00195312,0,0.00390625,0.0078125,-0.0351562
-8335551590342038008,0.00390625,0.00195312,0,0.00390625,-0.03125,0.00390625
-8335551590334347008,0.00390625,0.00195312,0,0.00390625,-0.03125,0.00390625
-8335551590324911008,0.00390625,0.00195312,0,0.00390625,0.0078125,0.0429688
-8335551590314917008,0.00390625,0.00195312,0,0.00390625,-0.03125,0.00390625
-8335551590304489008,0.00390625,0.00195312,0,0.00390625,-0.03125,0.00390625
-8335551590297524008,0.00390625,0.00195312,0,0.00390625,-0.03125,-0.0351562
-8335551590289224008,0.00390625,0.00195312,0,0.00390625,0.0078125,0.00390625
-8335551590280345008,0.00390625,0.00195312,0,0.00390625,0.0078125,0.00390625
-8335551590271923008,0.00390625,0.00195312,0,0.00390625,0.0078125,0.00390625
-8335551590265874008,0.00390625,0.00195312,0,0.00390625,0.0078125,-0.0351562
-8335551590257284008,0.00390625,0.00195312,0,0.00390625,0.0078125,-0.0351562
-8335551590248736008,0.00390625,0.00195312,0,0.00390625,0.0078125,0.00390625
-8335551590239910008,0.00390625,0.00195312,0,0.00390625,0.0078125,0.00390625
-8335551590229449008,0.00390625,0.00195312,0,0.00390625,0.0078125,0.00390625
-8335551590221288008,0,0,0,0.00390625,0.0078125,0.00390625
-8335551590214114008,0,0,0,0.0429688,0.0078125,0.00390625
-8335551590205257008,0,0,0,0.00390625,0.046875,0.00390625
-8335551590197925008,0,0,0,0.00390625,0.046875,0.00390625
-8335551590191942008,0,0,0,-0.0351562,-0.03125,-0.0351562
-8335551590186791008,0,0,0,0.00390625,0.0078125,0.0429688
-8335551590180626008,0,0,0,0.00390625,0.0078125,0.00390625
-8335551590175503008,0,0,0,0.00390625,-0.03125,0.00390625
-8335551590165393008,0,0,0,0.00390625,-0.03125,0.00390625
-8335551590156869008,0,0,0,0.00390625,0.0078125,0.00390625
-8335551590147838008,0,0,0,0.00390625,-0.03125,0.00390625
-8335551590139668008,0,0,0,0.00390625,0.0078125,0.00390625
-8335551590130065008,0,0,0,0.00390625,-0.03125,-0.0351562
-8335551590122118008,0,0,0,0.00390625,-0.03125,-0.0351562
-8335551590113736008,0,0,0,0.00390625,0.0078125,0.00390625
-8335551590107656008,0,0,0,0.00390625,0.0078125,0.00390625
-8335551590098907008,0,0,0,0.00390625,0.0078125,-0.00390625
-8335551590089465008,0,0,0,0.00390625,0.0078125,-0.00390625
-8335551590078779008,0,0,0,0.00390625,0.0078125,-0.0429688
-8335551590070142008,0,0,0,-0.0351562,-0.03125,-0.00390625
-8335551590062138008,0,0,0,-0.0351562,-0.03125,-0.00390625
-8335551590055751008,0,0,0,0.00390625,-0.03125,-0.00390625
-8335551590048470008,0,0,0,0.00390625,-0.03125,-0.00390625
-8335551590042029008,0,0,0,-0.0351562,-0.03125,-0.00390625
-8335551590037129008,0,0,0,0.00390625,-0.03125,0.0351562
-8335551590030885008,0,0,0,0.00390625,0.0078125,-0.0429688
-8335551590023450008,0,0,0,0.00390625,0.0078125,-0.00390625
-8335551590014681008,0,0,0,0.00390625,0.0078125,-0.00390625
-8335551590005867008,0,0,0,-0.0351562,0.0078125,0.0351562
-8335551589998513008,0,0,0,-0.0351562,0.0078125,0.0351562
-8335551589990037008,0,0,0,-0.0351562,0.0078125,-0.00390625
-8335551589981304008,0,0,0,0.00390625,0.0078125,0.0351562
-8335551589971845008,0,0,0,0.00390625,0.0078125,0.0351562
-8335551589961350008,0,0,0,0.00390625,-0.03125,-0.00390625
-8335551589953191008,0,0,0,0.00390625,0.0078125,-0.0429688
-8335551589941880008,0,0,0,0.00390625,0.0078125,-0.00390625
-8335551589933504008,0,0,0,0.00390625,0.0078125,-0.00390625
-8335551589920266008,0,0,0,-0.0351562,-0.03125,-0.00390625
-8335551589907716008,0,0,0,-0.0351562,-0.03125,-0.00390625
-8335551589898413008,0,0,0,0.00390625,0.0078125,-0.00390625
-8335551589889684008,0,0,0,0.00390625,0.0078125,-0.00390625
-8335551589881652008,0,0,0,0.00390625,0.0078125,-0.00390625
-8335551589875088008,0,0,0,0.0429688,0.0078125,-0.00390625
-8335551589863110008,0,0,0,0.0429688,0.0078125,-0.00390625
-8335551589853164008,0,0,0,0.00390625,0.0078125,-0.00390625
-8335551589843263008,0,0,0,0.00390625,0.046875,-0.00390625
-8335551589830907008,0,0,0,0.00390625,-0.03125,-0.00390625
-8335551589822256008,0,0,0,-0.0351562,0.0078125,0.00390625
-8335551589813550008,0,0,0,0.00390625,-0.03125,0.0429688
-8335551589804558008,0,0,0,0.00390625,0.0078125,0.00390625
-8335551589795976008,0,0,0,0.00390625,0.0078125,0.00390625
-8335551589789789008,0,0,0,0.00390625,0.0078125,0.00390625
-8335551589781752008,0,0,0,0.00390625,0.0078125,0.00390625
-8335551589773895008,0,0,0,0.00390625,0.0078125,-0.0351562
-8335551589763261008,0,0,0,0.00390625,0.0078125,-0.0351562
-8335551589754543008,0,0,0,0.00390625,0.0078125,-0.0351562
-8335551589745931008,0,0,0,0.00390625,0.0078125,-0.0351562
-8335551589736295008,0,0,0,0.00390625,0.0078125,-0.0351562
-8335551589725512008,0,0,0,0.00390625,-0.03125,0.00390625
-8335551589714420008,0,0,0,-0.0351562,-0.03125,0.0429688
-8335551589702129008,0,0,0,-0.0351562,-0.03125,0.0429688
-8335551589691524008,0,0,0,0.00390625,0.0078125,-0.0351562
-8335551589683159008,0,0,0,0.00390625,0.0078125,0.00390625
-8335551589674780008,0,0,0,0.00390625,0.0078125,0.00390625
-8335551589665928008,0,0,0,0.00390625,-0.03125,0.0429688
-8335551589658476008,0,0,0,0.00390625,-0.03125,0.0429688
-8335551589651990008,0,0,0,0.00390625,0.0078125,0.00390625
-8335551589645743008,0,0,0,0.00390625,0.0078125,0.00390625
-8335551589634777008,0,0,0,0.00390625,0.0078125,0.00390625
-8335551589624534008,0,0,0,0.0429688,-0.03125,0.00390625
-8335551589615398008,0,0,0,-0.0351562,0.0078125,0.0429688
-8335551589606235008,0,0,0,0.0429688,0.0078125,0.00390625
-8335551589597085008,0,0,0,0.0429688,0.0078125,0.00390625
-8335551589589902008,0,0,0,0.00390625,0.0078125,0.0429688
-8335551589581948008,0,0,0,0.00390625,0.0078125,0.0429688
-8335551589573727008,0,0,0,0.00390625,0.0078125,0.00390625
-8335551589567373008,0,0,0,0.00390625,0.0078125,0.00390625
-8335551589558043008,0,0,0,0.00390625,-0.03125,0.00390625
-8335551589550374008,0,0,0,0.00390625,-0.03125,0.00390625
-8335551589541935008,0,0,0,0.00390625,-0.03125,0.00390625
-8335551589535988008,0,0,0,-0.0351562,-0.03125,0.0429688
-8335551589528067008,0,0,0,-0.0351562,-0.03125,0.0429688
-8335551589517002008,0,0,0,0.00390625,0.0078125,0.00390625
-8335551589511054008,0,0,0,0.0429688,0.0078125,0.00390625
-8335551589502935008,0,0,0,0.00390625,0.0078125,0.00390625
-8335551589494044008,0,0,0,0.00390625,-0.03125,0.00390625
-8335551589485089008,0,0,0,0.0429688,0.0078125,0.00390625
-8335551589477736008,0,0,0,0.0429688,0.0078125,0.00390625
-8335551589471806008,0,0,0,0.00390625,-0.03125,0.00390625
-8335551589466807008,0,0,0,0.00390625,0.0078125,0.00390625
-8335551589461822008,0,0,0,-0.0351562,-0.03125,-0.0351562
-8335551589452438008,0,0,0,0.00390625,0.0078125,0.00390625
-8335551589447214008,0,0,0,0.00390625,0.0078125,0.0429688
-8335551589438781008,0,0,0,0.00390625,0.0078125,0.00390625
-8335551589428317008,0,0,0,0.0429688,-0.03125,-0.0351562
-8335551589420107008,0,0,0,0.0429688,-0.03125,-0.0351562
-8335551589409599008,0,0,0,0.0429688,-0.03125,-0.0351562
-8335551589400219008,0,0,0,0.0429688,-0.03125,-0.0351562
-8335551589390318008,0,0,0,0.0429688,-0.03125,-0.0351562
-8335551589384333008,0,0,0,0.00390625,0.0078125,0.0429688
-8335551589375679008,0,0,0,0.00390625,0.0078125,0.00390625
-8335551589366366008,0,0,0,0.00390625,0.0078125,0.00390625
-8335551589360157008,0,0,0,0.00390625,0.0078125,0.00390625
-8335551589352783008,0,0,0,0.00390625,0.0078125,0.00390625
-8335551589346844008,0,0,0,0.00390625,0.0078125,0.00390625
-8335551589340028008,0,0,0,0.00390625,0.0078125,0.0429688
-8335551589334414008,0,0,0,0.00390625,0.0078125,0.0429688
-8335551589325676008,0,0,0,0.00390625,-0.03125,0.0429688
-8335551589318291008,0,0,0,0.00390625,-0.03125,0.0429688
-8335551589311618008,0,0,0,0.00390625,0.0078125,0.00390625
-8335551589302961008,0,0,0,0.00390625,-0.03125,0.00390625
-8335551589297788008,0,0,0,-0.0351562,-0.03125,0.00390625
-8335551589288946008,0,0,0,0.00390625,0.0078125,0.0429688
-8335551589279150008,0,0,0,0.00390625,0.0078125,0.00390625
-8335551589270119008,0,0,0,0.00390625,0.0078125,0.00390625
-8335551589260024008,0,0,0,0.00390625,0.0078125,0.00390625
-8335551589251107008,0,0,0,0.00390625,0.0078125,0.00390625
-8335551589243163008,0,0,0,0.00390625,0.0078125,0.0351562
-8335551589235626008,0,0,0,0.00390625,0.0078125,0.0351562
-8335551589227131008,0,0,0,0.00390625,0.0078125,0.0351562
-8335551589221234008,0,0,0,0.00390625,-0.03125,-0.00390625
-8335551589215384008,0,0,0,0.00390625,-0.03125,-0.00390625
-8335551589208943008,0,0,0,0.00390625,-0.03125,-0.00390625
-8335551589201624008,0,0,0,-0.0351562,-0.03125,0.0351562
-8335551589196683008,0,0,0,0.00390625,0.0078125,-0.00390625
-8335551589188726008,0,0,0,0.00390625,0.0078125,-0.00390625
-8335551589175432008,0,0,0,0.00390625,-0.03125,-0.00390625
-8335551589164855008,0,0,0,0.00390625,-0.03125,-0.00390625
-8335551589155906008,0,0,0,0.00390625,-0.03125,-0.00390625
-8335551589149042008,0,0,0,0.00390625,-0.03125,-0.00390625
-8335551589140863008,0,0,0,0.00390625,0.0078125,-0.00390625
-8335551589134802008,0,0,0,0.0429688,-0.03125,-0.0429688
-8335551589127945008,0,0,0,0.0429688,-0.03125,-0.0429688
-8335551589118567008,0,0,0,0.00390625,-0.03125,-0.0429688
-8335551589109131008,0,0,0,0.00390625,-0.03125,-0.0429688
-8335551589102372008,0,0,0,0.00390625,-0.03125,0.0351562
-8335551589093050008,0,0,0,0.00390625,0.0078125,-0.00390625
-8335551589084492008,0,0,0,0.00390625,0.0078125,-0.00390625
-8335551589075680008,0,0,0,0.00390625,0.0078125,0.0429688
-8335551589068408008,0,0,0,0.00390625,0.0078125,0.0429688
-8335551589061975008,0,0,0,0.00390625,0.0078125,0.0351562
-8335551589057071008,0,0,0,0.00390625,0.0078125,-0.00390625
-8335551589050384008,0,0,0,0.0429688,0.0078125,-0.00390625
-8335551589044694008,0,0,0,0.00390625,-0.03125,-0.00390625
-8335551589034768008,0,0,0,0.00390625,0.0078125,-0.00390625
-8335551589024153008,0,0,0,0.00390625,0.0078125,-0.00390625
-8335551589013524008,0,0,0,0.00390625,0.0078125,-0.00390625
-8335551589003647008,0,0,0,0.00390625,-0.03125,-0.00390625
-8335551588991714008,0,0,0,-0.0351562,-0.03125,-0.00390625
-8335551588983552008,0,0,0,0.00390625,0.0078125,0.0429688
-8335551588973056008,0,0,0,0.00390625,0.0078125,0.00390625
-8335551588964683008,0,0,0,0.00390625,0.0078125,0.0429688
-8335551588954014008,0,0,0,0.00390625,0.0078125,0.0429688
-8335551588945385008,0,0,0,0.00390625,0.0078125,0.0429688
-8335551588937093008,0,0,0,0.00390625,0.0078125,0.0429688
-8335551588931178008,0,0,0,-0.0351562,0.0078125,-0.00390625
-8335551588926254008,0,0,0,0.00390625,-0.03125,-0.00390625
-8335551588919091008,0,0,0,0.00390625,-0.03125,-0.00390625
-8335551588913507008,0,0,0,0.00390625,-0.03125,-0.00390625
-8335551588905339008,0,0,0,0.00390625,-0.03125,0.0351562
-8335551588895569008,0,0,0,0.00390625,-0.03125,0.0351562
-8335551588889631008,0,0,0,0.00390625,0.0078125,-0.00390625
-8335551588879587008,0,0,0,-0.0351562,0.046875,0.0351562
-8335551588871638008,0,0,0,-0.0351562,0.046875,0.0351562
-8335551588865523008,0,0,0,0.00390625,0.0078125,0.0351562
-8335551588857930008,0,0,0,0.00390625,0.0078125,0.0351562
-8335551588851110008,0,0,0,-0.0351562,-0.03125,0.0351562
-8335551588846962008,0,0,0,-0.0351562,-0.03125,0.0351562
-8335551588841083008,0,0,0,0.00390625,0.0078125,0.0351562
-8335551588835537008,0,0,0,-0.0351562,0.0078125,-0.00390625
-8335551588829533008,0,0,0,-0.0351562,0.0078125,-0.00390625
-8335551588821529008,0,0,0,-0.0351562,0.0078125,-0.00390625
-8335551588815527008,0,0,0,0.00390625,0.0078125,-0.0429688
-8335551588807330008,0,0,0,0.00390625,0.0078125,-0.0429688
-8335551588797542008,0,0,0,0.00390625,-0.03125,-0.00390625
-8335551588788694008,0,0,0,0.00390625,0.0078125,0.0351562
-8335551588779514008,0,0,0,0.0429688,-0.03125,-0.00390625
-8335551588771033008,0,0,0,0.0429688,-0.03125,-0.00390625
-8335551588763092008,0,0,0,0.00390625,0.0078125,0.0351562
-8335551588755029008,0,0,0,0.00390625,0.0078125,0.0351562
-8335551588745509008,0,0,0,0.00390625,0.0078125,0.0351562
-8335551588738786008,0,0,0,-0.0351562,-0.0234375,-0.00390625
-8335551588730071008,0,0,0,0.00390625,0.015625,0.0351562
-8335551588721854008,0,0,0,0.00390625,0.015625,0.0351562
-8335551588715951008,0,0,0,0.00390625,0.015625,-0.0429688
-8335551588710608008,0,0,0,0.00390625,0.015625,-0.00390625
-8335551588705018008,0,0,0,0.00390625,0.015625,-0.00390625
-8335551588697473008,0,0,0,0.00390625,0.015625,-0.00390625
-8335551588688542008,0,0,0,0.00390625,0.015625,-0.00390625
-8335551588682892008,0,0,0,0.0429688,0.015625,-0.00390625
-8335551588674567008,0,0,0,0.00390625,0.015625,-0.00390625
-8335551588665747008,0,0,0,0.00390625,0.0546875,-0.00390625
-8335551588659857008,0,0,0,0.00390625,0.0546875,-0.00390625
-8335551588652855008,0,0,0,0.00390625,0.0546875,-0.00390625
-8335551588646055008,0,0,0,-0.0351562,0.015625,-0.00390625
-8335551588641143008,0,0,0,0.00390625,-0.0234375,-0.00390625
-8335551588635983008,0,0,0,0.0429688,0.015625,0.0351562
-8335551588629170008,0,0,0,0.0429688,0.015625,-0.00390625
-8335551588620392008,0,0,0,0.00390625,0.015625,-0.0429688
-8335551588613078008,0,0,0,0.00390625,0.015625,-0.0429688
-8335551588606820008,0,0,0,0.0429688,-0.03125,-0.0429688
-8335551588601907008,0,0,0,0.00390625,0.0078125,-0.00390625
-8335551588596673008,0,0,0,0.00390625,-0.03125,-0.00390625
-8335551588588270008,0,0,0,-0.0351562,0.0078125,0.0351562
-8335551588576708008,0,0,0,-0.0351562,0.0078125,-0.00390625
-8335551588568560008,0,0,0,0.00390625,-0.03125,-0.00390625
-8335551588555629008,0,0,0,0.00390625,0.0078125,-0.00390625
-8335551588545059008,0,0,0,0.00390625,0.0078125,-0.00390625
-8335551588536797008,0,0,0,0.00390625,0.0078125,-0.00390625
-8335551588530512008,0,0,0,0.00390625,-0.03125,-0.00390625
-8335551588522879008,0,0,0,-0.0351562,0.0078125,0.0351562
-8335551588513521008,0,0,0,0.00390625,-0.03125,-0.00390625
-8335551588502776008,0,0,0,-0.0351562,0.0078125,0.0351562
-8335551588491119008,0,0,0,0.00390625,0.0078125,-0.00390625
-8335551588479110008,0,0,0,0.00390625,0.0078125,-0.0429688
-8335551588466710008,0,0,0,0.00390625,0.0078125,-0.00390625
-8335551588455998008,0,0,0,0.00390625,0.0078125,-0.00390625
-8335551588446572008,0,0,0,0.00390625,0.0078125,-0.00390625
-8335551588438377008,0,0,0,0.00390625,0.0078125,-0.00390625
-8335551588426075008,0,0,0,0.0429688,0.0078125,0.0351562
-8335551588417941008,0,0,0,0.00390625,0.0078125,-0.0429688
-8335551588409096008,0,0,0,0.00390625,0.0078125,-0.00390625
-8335551588400164008,0,0,0,0.00390625,0.0078125,-0.00390625
-8335551588392749008,0,0,0,0.00390625,0.0078125,-0.00390625
-8335551588386513008,0,0,0,0.0429688,0.0078125,-0.00390625
-8335551588381095008,0,0,0,0.00390625,0.0078125,-0.00390625
-8335551588376146008,0,0,0,0.0429688,-0.03125,-0.00390625
-8335551588369918008,0,0,0,0.00390625,0.0078125,-0.00390625
-8335551588363494008,0,0,0,0.00390625,0.0078125,0.0351562
-8335551588354831008,0,0,0,0.00390625,0.0078125,-0.00390625
-8335551588341554008,0,0,0,0.00390625,0.0078125,0.0351562
-8335551588336450008,0,0,0,0.0429688,-0.03125,0.0351562
-8335551588327310008,0,0,0,0.00390625,0.0078125,-0.0429688
-8335551588315731008,0,0,0,0.00390625,0.0078125,-0.0429688
-8335551588307431008,0,0,0,0.00390625,0.0078125,0.0351562
-8335551588298540008,0,0,0,-0.0351562,-0.03125,-0.00390625
-8335551588288894008,0,0,0,0.00390625,0.0078125,-0.00390625
-8335551588280318008,0,0,0,0.00390625,-0.03125,-0.00390625
-8335551588269949008,0,0,0,0.00390625,-0.03125,-0.00390625
-8335551588257685008,0,0,0,0.00390625,-0.03125,-0.00390625
-8335551588251218008,0,0,0,0.00390625,0.0078125,-0.00390625
-8335551588243077008,0,0,0,0.00390625,0.0078125,0.0351562
-8335551588231192008,0,0,0,0.00390625,0.0078125,-0.00390625
-8335551588222818008,0,0,0,-0.0351562,0.0078125,-0.00390625
-8335551588212865008,0,0,0,0.00390625,-0.03125,-0.00390625
-8335551588202309008,0,0,0,-0.0351562,0.0078125,-0.00390625
-8335551588194109008,0,0,0,0.0429688,-0.03125,0.0351562
-8335551588181042008,0,0,0,0.00390625,-0.03125,-0.00390625
-8335551588172566008,0,0,0,0.00390625,-0.03125,-0.00390625
-8335551588162774008,0,0,0,0.00390625,0.0078125,-0.00390625
-8335551588154014008,0,0,0,-0.0351562,0.0078125,-0.00390625
-8335551588144036008,0,0,0,-0.0351562,0.0078125,0.0351562
-8335551588132883008,0,0,0,0.00390625,0.0078125,-0.00390625
-8335551588125455008,0,0,0,0.00390625,0.0078125,-0.00390625
-8335551588116045008,0,0,0,0.00390625,0.0078125,-0.00390625
-8335551588109092008,0,0,0,0.00390625,0.0078125,-0.00390625
-8335551588100614008,0,0,0,0.00390625,0.0078125,-0.00390625
-8335551588093521008,0,0,0,0.00390625,0.0078125,-0.00390625
-8335551588086155008,0,0,0,0.00390625,0.0078125,-0.00390625
-8335551588079271008,0,0,0,0.00390625,0.0078125,-0.00390625
-8335551588065522008,0,0,0,0.00390625,0.0078125,-0.00390625
-8335551588056369008,0,0,0,0.00390625,0.0078125,-0.00390625
-8335551588046946008,0,0,0,0.00390625,0.0078125,-0.00390625
-8335551588038530008,0,0,0,0.00390625,0.0078125,-0.0429688
-8335551588029654008,0,0,0,-0.0351562,0.0078125,-0.00390625
-8335551588020170008,0,0,0,-0.0351562,0.0078125,-0.00390625
-8335551588011190008,0,0,0,-0.0351562,0.0078125,-0.00390625
-8335551588004930008,0,0,0,0.00390625,0.0078125,0.0351562
-8335551587993423008,0,0,0,0.00390625,0.0078125,0.0351562
-8335551587987253008,0,0,0,0.00390625,-0.03125,-0.00390625
-8335551587979104008,0,0,0,0.00390625,0.0078125,-0.00390625
-8335551587968751008,0,0,0,0.00390625,0.0078125,-0.00390625
-8335551587959608008,0,0,0,0.00390625,-0.03125,0.0351562
-8335551587951442008,0,0,0,0.00390625,-0.03125,0.0351562
-8335551587945302008,0,0,0,0.0429688,0.0078125,-0.00390625
-8335551587937959008,0,0,0,0.0429688,0.0078125,-0.00390625
-8335551587931477008,0,0,0,0.00390625,-0.03125,-0.00390625
-8335551587925438008,0,0,0,0.00390625,0.0078125,0.0351562
-8335551587918198008,0,0,0,0.00390625,0.0078125,0.0351562
-8335551587911403008,0,0,0,-0.0351562,0.0078125,-0.00390625
-8335551587904075008,0,0,0,0.00390625,0.0078125,0.0351562
-8335551587890105008,0,0,0,0.00390625,0.0078125,-0.0429688
-8335551587881039008,0,0,0,0.00390625,0.0078125,-0.0429688
-8335551587873841008,0,0,0,0.00390625,0.0078125,0.0351562
-8335551587865008008,0,0,0,0.00390625,0.0078125,-0.00390625
-8335551587854903008,0,0,0,0.00390625,0.0078125,-0.00390625
-8335551587848350008,0,0,0,0.0429688,-0.03125,-0.00390625
-8335551587837356008,0,0,0,0.00390625,0.0078125,0.0351562
-8335551587824558008,0,0,0,0.00390625,0.0078125,-0.00390625
-8335551587815182008,0,0,0,0.00390625,0.0078125,-0.00390625
-8335551587804670008,0,0,0,0.00390625,0.0078125,-0.00390625
-8335551587795810008,0,0,0,0.00390625,0.0078125,-0.00390625
-8335551587787570008,0,0,0,-0.0273438,-0.03125,-0.00390625
-8335551587779882008,0,0,0,-0.0273438,-0.03125,-0.00390625
-8335551587771197008,0,0,0,-0.0273438,-0.03125,-0.00390625
-8335551587763984008,0,0,0,-0.0273438,-0.03125,-0.00390625
-8335551587754942008,0,0,0,-0.0273438,-0.03125,-0.00390625
-8335551587746475008,0,0,0,-0.0273438,-0.03125,-0.00390625
-8335551587740577008,0,0,0,0.0117188,0.0078125,-0.0429688
-8335551587731322008,0,0,0,0.0117188,0.0078125,-0.0429688
-8335551587724881008,0,0,0,0.0117188,0.0078125,0.0351562
-8335551587713433008,0,0,0,0.0117188,0.0078125,0.0351562
-8335551587707173008,0,0,0,0.0117188,0.046875,-0.00390625
-8335551587699058008,0,0,0,0.0117188,-0.03125,-0.00390625
-8335551587687920008,0,0,0,0.0117188,0.0078125,-0.00390625
-8335551587679697008,0,0,0,0.0117188,0.0078125,0.00390625
-8335551587671692008,0,0,0,0.0117188,0.0078125,0.00390625
-8335551587662515008,0,0,0,0.0507812,-0.03125,0.0429688
-8335551587654884008,0,0,0,0.0507812,-0.03125,0.0429688
-8335551587643195008,0,0,0,0.0507812,-0.03125,0.0429688
-8335551587634516008,0,0,0,0.0507812,-0.03125,0.0429688
-8335551587624585008,0,0,0,0.0117188,-0.03125,0.00390625
-8335551587614927008,0,0,0,0.0117188,-0.03125,0.00390625
-8335551587605957008,0,0,0,0.0117188,-0.03125,0.00390625
-8335551587600079008,0,0,0,0.0507812,0.0078125,0.0351562
-8335551587590428008,0,0,0,0.0507812,0.0078125,0.0351562
-8335551587583625008,0,0,0,0.0507812,0.0078125,0.0351562
-8335551587574638008,0,0,0,0.00390625,0.0078125,-0.0429688
-8335551587566689008,0,0,0,0.00390625,0.0078125,-0.0429688
-8335551587560425008,0,0,0,0.00390625,0.015625,-0.00390625
-8335551587552206008,0,0,0,0.00390625,0.015625,-0.00390625
-8335551587543903008,0,0,0,0.0429688,0.015625,-0.00390625
-8335551587535060008,0,0,0,0.00390625,0.015625,-0.00390625
-8335551587527779008,0,0,0,0.00390625,0.015625,-0.00390625
-8335551587520318008,0,0,0,0.0429688,0.015625,-0.00390625
-8335551587515103008,0,0,0,0.00390625,0.015625,-0.00390625
-8335551587507824008,0,0,0,0.00390625,0.015625,-0.00390625
-8335551587501415008,0,0,0,-0.0351562,0.015625,0.0351562
-8335551587495498008,0,0,0,0.00390625,0.015625,0.0351562
-8335551587489517008,0,0,0,-0.0351562,-0.0234375,-0.00390625
-8335551587481559008,0,0,0,-0.0351562,-0.0234375,-0.00390625
-8335551587472529008,0,0,0,0.00390625,0.015625,-0.00390625
-8335551587465542008,0,0,0,0.00390625,0.015625,-0.00390625
-8335551587455938008,0,0,0,0.00390625,0.015625,-0.00390625
-8335551587450049008,0,0,0,0.00390625,0.015625,-0.00390625
-8335551587441198008,0,0,0,0.00390625,0.015625,-0.00390625
-8335551587434827008,0,0,0,0.00390625,0.015625,-0.00390625
-8335551587427182008,0,0,0,0.00390625,0.015625,-0.00390625
-8335551587420948008,0,0,0,-0.0351562,0.0078125,0.0351562
-8335551587416009008,0,0,0,0.00390625,0.0078125,-0.00390625
-8335551587409112008,0,0,0,-0.0351562,0.0078125,-0.00390625
-8335551587401497008,0,0,0,0.00390625,0.0078125,-0.00390625
-8335551587392924008,0,0,0,0.00390625,-0.03125,-0.00390625
-8335551587384446008,0,0,0,0.00390625,0.0078125,-0.00390625
-8335551587375004008,0,0,0,-0.0351562,0.0078125,-0.00390625
-8335551587366084008,0,0,0,-0.0351562,0.0078125,-0.00390625
-8335551587360173008,0,0,0,0.00390625,-0.03125,0.0351562
-8335551587349383008,0,0,0,0.00390625,-0.03125,0.0351562
-8335551587341907008,0,0,0,0.00390625,0.0078125,-0.0429688
-8335551587333411008,0,0,0,-0.0351562,0.0078125,-0.00390625
-8335551587326040008,0,0,0,-0.0351562,0.0078125,-0.00390625
-8335551587320147008,0,0,0,0.00390625,0.0078125,-0.00390625
-8335551587312904008,0,0,0,0.00390625,0.0078125,-0.00390625
-8335551587306046008,0,0,0,0.00390625,0.0078125,-0.00390625
-8335551587301114008,0,0,0,0.00390625,0.0078125,-0.00390625
-8335551587296178008,0,0,0,-0.0273438,0.0078125,0.0351562
-8335551587288572008,0,0,0,0.0117188,0.0078125,-0.00390625
-8335551587282198008,0,0,0,-0.0273438,-0.03125,-0.00390625
-8335551587272290008,0,0,0,0.0117188,0.0078125,-0.00390625
-8335551587255075008,0,0,0,0.0117188,-0.03125,0.0742188
-8335551587243664008,0,0,0,0.0117188,0.046875,-0.00390625
-8335551587231792008,0,0,0,0.0117188,0.046875,-0.00390625
-8335551587222761008,0,0,0,0.0117188,0.0078125,0.0351562
-8335551587213735008,0,0,0,0.0117188,-0.03125,-0.00390625
-8335551587203920008,0,0,0,0.0117188,-0.03125,0.0351562
-8335551587194561008,0,0,0,0.0117188,0.0078125,-0.00390625
-8335551587186515008,0,0,0,0.0117188,0.0078125,-0.00390625
-8335551587180593008,0,0,0,0.0117188,0.0078125,-0.00390625
-8335551587174558008,0,0,0,0.0117188,0.0078125,-0.00390625
-8335551587164017008,0,0,0,0.0117188,0.0078125,-0.00390625
-8335551587154657008,0,0,0,-0.0273438,-0.03125,-0.00390625
-8335551587143091008,0,0,0,0.0117188,0.0078125,-0.0429688
-8335551587131845008,0,0,0,0.0117188,0.0078125,-0.0429688
-8335551587122627008,0,0,0,0.0117188,0.0078125,-0.00390625
-8335551587113092008,0,0,0,0.0117188,-0.03125,-0.00390625
-8335551587101434008,0,0,0,0.0117188,-0.03125,0.0351562
-8335551587091822008,0,0,0,0.0117188,0.0078125,0.0351562
-8335551587080867008,0,0,0,0.0117188,-0.03125,-0.00390625
-8335551587072508008,0,0,0,0.0117188,-0.03125,-0.00390625
-8335551587063969008,0,0,0,0.0117188,0.0078125,-0.00390625
-8335551587054671008,0,0,0,0.0117188,0.0078125,-0.00390625
-8335551587045574008,0,0,0,0.0117188,0.0078125,-0.00390625
-8335551587039675008,0,0,0,0.0117188,0.0078125,-0.00390625
-8335551587030668008,0,0,0,0.0117188,0.0078125,-0.00390625
-8335551587024557008,0,0,0,-0.0273438,-0.03125,-0.00390625
-8335551587016607008,0,0,0,-0.0273438,-0.03125,-0.00390625
-8335551587010428008,0,0,0,0.0507812,0.0078125,0.0351562
-8335551587004356008,0,0,0,0.0507812,0.0078125,0.0351562
-8335551586997308008,0,0,0,0.0507812,0.0078125,0.0351562
-8335551586991380008,0,0,0,0.0117188,0.0078125,-0.00390625
-8335551586986435008,0,0,0,-0.0273438,0.0078125,0.0351562
-8335551586981535008,0,0,0,0.0117188,0.0078125,-0.00390625
-8335551586976607008,0,0,0,0.0117188,-0.03125,-0.00390625
-8335551586969910008,0,0,0,0.0117188,0.0078125,-0.00390625
-8335551586964951008,0,0,0,0.0117188,-0.03125,-0.0429688
-8335551586956613008,0,0,0,0.0117188,-0.03125,-0.0429688
-8335551586950711008,0,0,0,0.0117188,0.0078125,-0.00390625
-8335551586945548008,0,0,0,0.0117188,-0.03125,-0.00390625
-8335551586938325008,0,0,0,0.0117188,-0.03125,-0.00390625
-8335551586929858008,0,0,0,0.0117188,0.0078125,-0.00390625
-8335551586920975008,0,0,0,0.0117188,0.0078125,0.0351562
-8335551586912555008,0,0,0,0.0507812,0.0078125,-0.0429688
-8335551586903218008,0,0,0,0.0117188,-0.03125,0.0351562
-8335551586893559008,0,0,0,0.0507812,0.0078125,-0.00390625
-8335551586884600008,0,0,0,-0.0273438,0.0078125,-0.00390625
-8335551586875172008,0,0,0,-0.0273438,0.0078125,-0.00390625
-8335551586864495008,0,0,0,-0.0273438,0.0078125,-0.00390625
-8335551586857972008,0,0,0,0.0117188,-0.03125,0.0351562
-8335551586849407008,0,0,0,-0.0273438,0.0078125,-0.00390625
-8335551586841443008,0,0,0,-0.0273438,0.0078125,-0.00390625
-8335551586835508008,0,0,0,-0.0273438,0.0078125,0.0351562
-8335551586830071008,0,0,0,0.0117188,0.0078125,0.0351562
-8335551586824207008,0,0,0,0.0117188,0.0078125,0.0351562
-8335551586816390008,0,0,0,0.0117188,0.0078125,-0.00390625
-8335551586806874008,0,0,0,0.0117188,0.0078125,-0.0820312
-8335551586798247008,0,0,0,0.0117188,-0.03125,-0.0429688
-8335551586789431008,0,0,0,0.0117188,-0.03125,-0.00390625
-8335551586779280008,0,0,0,-0.0273438,0.0078125,-0.00390625
-8335551586770436008,0,0,0,-0.0273438,0.0078125,-0.00390625
-8335551586764344008,0,0,0,-0.0273438,-0.03125,-0.00390625
-8335551586752536008,0,0,0,0.0117188,-0.03125,0.0351562
-8335551586746539008,0,0,0,0.0117188,-0.03125,0.0351562
-8335551586738098008,0,0,0,0.0117188,0.0078125,-0.00390625
-8335551586729293008,0,0,0,0.0117188,0.0078125,-0.00390625
-8335551586719690008,0,0,0,0.0117188,0.0078125,-0.00390625
-8335551586713065008,0,0,0,0.0117188,0.0078125,-0.00390625
-8335551586704885008,0,0,0,0.0117188,0.0078125,-0.0429688
-8335551586697573008,0,0,0,0.0117188,0.0078125,-0.0429688
-8335551586691195008,0,0,0,0.0117188,0.0078125,0.0351562
-8335551586686244008,0,0,0,-0.0273438,0.0078125,-0.00390625
-8335551586680990008,0,0,0,-0.0273438,0.0078125,-0.00390625
-8335551586675744008,0,0,0,0.0117188,0.0078125,-0.00390625
-8335551586669735008,0,0,0,0.0117188,0.0078125,-0.00390625
-8335551586662196008,0,0,0,0.0117188,0.0078125,-0.00390625
-8335551586651844008,0,0,0,-0.0273438,0.0078125,-0.00390625
-8335551586646660008,0,0,0,0.0117188,0.0078125,0.0351562
-8335551586637610008,0,0,0,0.0117188,0.0078125,0.0351562
-8335551586629104008,0,0,0,0.0117188,-0.03125,-0.00390625
-8335551586618079008,0,0,0,0.0117188,-0.03125,-0.00390625
-8335551586609289008,0,0,0,-0.0273438,0.0078125,0.0351562
-8335551586601951008,0,0,0,-0.0273438,0.0078125,0.0351562
-8335551586595976008,0,0,0,0.0117188,0.0078125,-0.00390625
-8335551586591020008,0,0,0,0.0507812,0.0078125,-0.00390625
-8335551586584573008,0,0,0,0.0117188,0.0078125,-0.00390625
-8335551586578949008,0,0,0,0.0117188,0.0078125,-0.00390625
-8335551586569771008,0,0,0,-0.0273438,0.0078125,-0.00390625
-8335551586557996008,0,0,0,-0.0273438,0.0078125,-0.00390625
-8335551586549661008,0,0,0,-0.0273438,0.0078125,-0.00390625
-8335551586541343008,0,0,0,-0.0273438,0.0078125,-0.00390625
-8335551586535456008,0,0,0,0.0507812,0.0078125,-0.00390625
-8335551586527421008,0,0,0,0.0507812,0.0078125,-0.00390625
-8335551586521268008,0,0,0,0.0117188,0.0078125,-0.00390625
-8335551586515267008,0,0,0,-0.0273438,-0.03125,-0.0429688
-8335551586510325008,0,0,0,0.0117188,0.0078125,0.0351562
-8335551586505428008,0,0,0,0.0117188,0.0078125,0.0351562
-8335551586497109008,0,0,0,0.0117188,0.0078125,0.0351562
-8335551586490587008,0,0,0,0.0117188,-0.03125,-0.00390625
-8335551586484461008,0,0,0,0.0117188,-0.03125,0.0351562
-8335551586473882008,0,0,0,0.0117188,-0.03125,0.0351562
-8335551586460505008,0,0,0,0.0117188,0.0078125,-0.00390625
-8335551586448638008,0,0,0,0.0117188,0.0078125,-0.00390625
-8335551586438974008,0,0,0,-0.0273438,0.0078125,0.0351562
-8335551586427116008,0,0,0,-0.0273438,0.0078125,0.0351562
-8335551586418003008,0,0,0,0.0117188,0.0078125,-0.00390625
-8335551586404725008,0,0,0,0.0117188,0.0078125,-0.0429688
-8335551586392814008,0,0,0,0.0117188,0.0078125,-0.00390625
-8335551586380942008,0,0,0,0.0117188,0.0078125,-0.00390625
-8335551586371383008,0,0,0,0.0117188,0.0078125,-0.00390625
-8335551586360483008,0,0,0,0.0117188,0.0078125,-0.00390625
-8335551586350624008,0,0,0,0.0117188,0.0078125,-0.00390625
-8335551586341130008,0,0,0,0.0117188,0.0078125,0.0351562
-8335551586332943008,0,0,0,0.0117188,0.0078125,-0.00390625
-8335551586324739008,0,0,0,0.0117188,-0.03125,-0.00390625
-8335551586319796008,0,0,0,0.0117188,0.0078125,-0.00390625
-8335551586311450008,0,0,0,0.0117188,0.0078125,-0.00390625
-8335551586303475008,0,0,0,0.0117188,0.0078125,-0.00390625
-8335551586295426008,0,0,0,0.0117188,0.0078125,-0.00390625
-8335551586289336008,0,0,0,0.0117188,0.0078125,-0.00390625
-8335551586279631008,0,0,0,0.0117188,0.0078125,-0.00390625
-8335551586273145008,0,0,0,-0.0273438,0.0078125,-0.0429688
-8335551586259508008,0,0,0,0.0117188,0.0078125,-0.00390625
-8335551586250586008,0,0,0,-0.0273438,-0.03125,-0.00390625
-8335551586241549008,0,0,0,0.0117188,-0.03125,0.0351562
-8335551586230860008,0,0,0,-0.0273438,-0.03125,-0.00390625
-8335551586222690008,0,0,0,-0.0273438,0.0078125,0.0351562
-8335551586214529008,0,0,0,-0.0273438,0.046875,-0.0429688
-8335551586206434008,0,0,0,-0.0273438,0.046875,-0.0429688
-8335551586200275008,0,0,0,-0.0273438,0.0078125,-0.00390625
-8335551586192249008,0,0,0,-0.0273438,0.0078125,-0.00390625
-8335551586184425008,0,0,0,0.0117188,0.0078125,0.0351562
-8335551586172044008,0,0,0,-0.0273438,0.046875,-0.0429688
-8335551586163664008,0,0,0,-0.0273438,0.046875,-0.0429688
-8335551586153426008,0,0,0,0.0507812,-0.03125,-0.0429688
-8335551586139269008,0,0,0,-0.0273438,0.0078125,0.0351562
-8335551586131252008,0,0,0,-0.0273438,0.0078125,0.0351562
-8335551586122145008,0,0,0,0.0117188,0.0078125,0.0351562
-8335551586112727008,0,0,0,0.0507812,-0.03125,-0.00390625
-8335551586102243008,0,0,0,0.0117188,0.0078125,0.0351562
-8335551586094196008,0,0,0,0.0117188,0.0078125,0.0351562
-8335551586085202008,0,0,0,0.0117188,0.0078125,0.0351562
-8335551586076972008,0,0,0,0.0117188,0.0078125,0.0351562
-8335551586071088008,0,0,0,0.0117188,0.0078125,-0.00390625
-8335551586062842008,0,0,0,0.0507812,0.0078125,-0.00390625
-8335551586057622008,0,0,0,0.0117188,-0.03125,0.0351562
-8335551586049065008,0,0,0,0.0117188,0.0078125,-0.00390625
-8335551586036671008,0,0,0,0.0117188,0.0078125,-0.00390625
-8335551586029301008,0,0,0,0.0117188,0.0078125,-0.00390625
-8335551586016174008,0,0,0,0.0117188,0.0078125,0.0351562
-8335551586003650008,0,0,0,0.0117188,0.0078125,-0.0429688
-8335551585992006008,0,0,0,0.0117188,0.0078125,-0.0429688
-8335551585982778008,0,0,0,0.0507812,-0.03125,0.0351562
-8335551585973699008,0,0,0,0.0117188,0.0078125,-0.00390625
-8335551585963483008,0,0,0,0.0507812,-0.03125,-0.00390625
-8335551585953491008,0,0,0,0.0507812,-0.03125,-0.00390625
-8335551585944543008,0,0,0,0.0507812,-0.03125,-0.00390625
-8335551585933880008,0,0,0,0.0507812,-0.03125,-0.00390625
-8335551585919052008,0,0,0,-0.0351562,0.0078125,-0.00390625
-8335551585905238008,0,0,0,0.00390625,0.0078125,-0.0429688
-8335551585893542008,0,0,0,0.00390625,0.0078125,-0.0429688
-8335551585880508008,0,0,0,0.00390625,-0.03125,-0.00390625
-8335551585872057008,0,0,0,0.00390625,0.0078125,-0.00390625
-8335551585862542008,0,0,0,0.00390625,-0.03125,-0.00390625
-8335551585853953008,0,0,0,0.00390625,0.0078125,-0.0429688
-8335551585845159008,0,0,0,0.00390625,0.0078125,-0.00390625
-8335551585833007008,0,0,0,0.00390625,0.0078125,-0.00390625
-8335551585826923008,0,0,0,0.00390625,0.0078125,-0.0429688
-8335551585816548008,0,0,0,0.00390625,-0.03125,-0.00390625
-8335551585808343008,0,0,0,0.00390625,0.046875,-0.00390625
-8335551585799553008,0,0,0,0.00390625,0.0078125,0.0351562
-8335551585791486008,0,0,0,0.00390625,0.0078125,0.0351562
-8335551585785306008,0,0,0,-0.0351562,0.0078125,-0.00390625
-8335551585778341008,0,0,0,0.00390625,0.0078125,-0.00390625
-8335551585764091008,0,0,0,0.00390625,0.0078125,0.00390625
-8335551585754496008,0,0,0,0.0429688,-0.03125,0.0429688
-8335551585743242008,0,0,0,0.0429688,-0.03125,0.0429688
-8335551585731191008,0,0,0,0.00390625,-0.03125,0.0351562
-8335551585721773008,0,0,0,0.00390625,-0.03125,-0.00390625
-8335551585708882008,0,0,0,-0.0351562,-0.03125,-0.00390625
-8335551585700388008,0,0,0,0.0429688,-0.0234375,-0.00390625
-8335551585688853008,0,0,0,0.00390625,-0.0234375,-0.0429688
-8335551585676812008,0,0,0,-0.0351562,0.015625,0.0351562
-8335551585668628008,0,0,0,0.0117188,0.015625,-0.00390625
-8335551585659221008,0,0,0,0.0117188,0.015625,-0.00390625
-8335551585650046008,0,0,0,0.0117188,-0.0234375,0.0351562
-8335551585644153008,0,0,0,0.0117188,-0.0234375,0.0351562
-8335551585634560008,0,0,0,0.0117188,-0.0234375,0.0351562
-8335551585626387008,0,0,0,0.0507812,0.015625,0.0351562
-8335551585616647008,0,0,0,0.0117188,-0.0234375,-0.00390625
-8335551585607962008,0,0,0,0.0117188,0.015625,-0.0429688
-8335551585650046008,0,0,0,0.0117188,-0.0234375,0.0351562
-8335551585644153008,0,0,0,0.0117188,-0.0234375,0.0351562
-8335551585634560008,0,0,0,0.0117188,-0.0234375,0.0351562
-8335551585626387008,0,0,0,0.0507812,0.015625,0.0351562
-8335551585616647008,0,0,0,0.0117188,-0.0234375,-0.00390625
-8335551585607962008,0,0,0,0.0117188,0.015625,-0.0429688
-8335551585598650008,0,0,0,0.0117188,0.015625,-0.00390625
-8335551585588808008,0,0,0,0.0117188,0.015625,-0.00390625
-8335551585577008008,0,0,0,0.0117188,0.015625,-0.00390625
-8335551585567867008,0,0,0,0.0429688,-0.0234375,-0.00390625
-8335551585556091008,0,0,0,0.00390625,-0.0234375,-0.00390625
-8335551585547700008,0,0,0,-0.0351562,0.015625,-0.00390625
-8335551585534950008,0,0,0,0.00390625,0.015625,-0.00390625
-8335551585523815008,0,0,0,0.00390625,0.015625,-0.00390625
-8335551585514287008,0,0,0,0.00390625,0.015625,-0.00390625
-8335551585504508008,0,0,0,0.00390625,0.015625,-0.00390625
-8335551585495056008,0,0,0,0.00390625,0.015625,-0.00390625
-8335551585485572008,0,0,0,0.00390625,0.015625,-0.00390625
-8335551585478136008,0,0,0,0.00390625,-0.0234375,-0.00390625
-8335551585469387008,0,0,0,0.00390625,0.015625,0.0351562
-8335551585461958008,0,0,0,0.00390625,0.015625,0.0351562
-8335551585455594008,0,0,0,0.00390625,0.015625,-0.00390625
-8335551585448636008,0,0,0,0.00390625,0.015625,-0.00390625
-8335551585436557008,0,0,0,-0.0351562,0.015625,-0.00390625
-8335551585429039008,0,0,0,-0.0351562,0.015625,-0.00390625
-8335551585413834008,0,0,0,0.00390625,0.015625,0.0351562
-8335551585397362008,0,0,0,0.00390625,0.015625,-0.00390625
-8335551585385212008,0,0,0,0.00390625,0.015625,-0.00390625
-8335551585376895008,0,0,0,0.00390625,-0.0234375,0.0351562
-8335551585367833008,0,0,0,0.00390625,0.0546875,-0.00390625
-8335551585359187008,0,0,0,0.00390625,0.015625,-0.00390625
-8335551585351232008,0,0,0,0.00390625,0.015625,-0.00390625
-8335551585344235008,0,0,0,0.0429688,-0.0234375,-0.00390625
-8335551585338351008,0,0,0,0.00390625,0.015625,-0.00390625
-8335551585329086008,0,0,0,0.00390625,0.015625,-0.00390625
-8335551585318136008,0,0,0,0.00390625,0.015625,-0.00390625
-8335551585309983008,0,0,0,0.0429688,-0.0234375,-0.00390625
-8335551585299983008,0,0,0,0.00390625,0.015625,-0.00390625
-8335551585287480008,0,0,0,0.00390625,0.015625,-0.00390625
-8335551585279027008,0,0,0,0.00390625,0.015625,-0.00390625
-8335551585270107008,0,0,0,0.00390625,0.015625,-0.00390625
-8335551585264195008,0,0,0,0.00390625,0.0078125,-0.00390625
-8335551585256185008,0,0,0,0.00390625,0.0078125,-0.00390625
-8335551585250291008,0,0,0,0.00390625,0.0078125,-0.00390625
-8335551585244505008,0,0,0,0.00390625,0.0078125,-0.00390625
-8335551585235566008,0,0,0,0.00390625,0.0078125,-0.00390625
-8335551585225861008,0,0,0,0.00390625,0.0078125,-0.00390625
-8335551585214760008,0,0,0,0.00390625,0.0078125,0.0351562
-8335551585206608008,0,0,0,0.00390625,0.0078125,-0.00390625
-8335551585196747008,0,0,0,0.00390625,0.0078125,-0.0429688
-8335551585188571008,0,0,0,0.00390625,-0.03125,-0.00390625
-8335551585177886008,0,0,0,0.0429688,0.0078125,0.0351562
-8335551585168686008,0,0,0,0.00390625,0.0078125,0.0351562
-8335551585159955008,0,0,0,0.00390625,0.0078125,0.0351562
-8335551585149456008,0,0,0,0.00390625,0.0078125,0.0351562
-8335551585142651008,0,0,0,0.00390625,-0.03125,-0.00390625
-8335551585133871008,0,0,0,0.00390625,0.0078125,-0.00390625
-8335551585124884008,0,0,0,-0.0351562,-0.03125,0.0351562
-8335551585116349008,0,0,0,-0.0351562,-0.03125,0.0351562
-8335551585110057008,0,0,0,0.0429688,0.0078125,0.0351562
-8335551585103531008,0,0,0,0.00390625,0.0078125,-0.00390625
-8335551585093012008,0,0,0,0.00390625,0.0078125,-0.00390625
-8335551585086545008,0,0,0,0.00390625,0.0078125,-0.00390625
-8335551585078244008,0,0,0,-0.0351562,0.0078125,-0.00390625
-8335551585068992008,0,0,0,0.00390625,0.0078125,-0.00390625
-8335551585060958008,0,0,0,0.00390625,0.0078125,-0.00390625
-8335551585055074008,0,0,0,0.00390625,0.0078125,-0.00390625
-8335551585050166008,0,0,0,-0.0351562,0.0078125,0.0351562
-8335551585042877008,0,0,0,-0.0351562,0.0078125,0.0351562
-8335551585036084008,0,0,0,-0.0351562,0.0078125,0.0351562
-8335551585030198008,0,0,0,0.00390625,0.0078125,-0.00390625
-8335551585024421008,0,0,0,0.00390625,-0.03125,0.0351562
-8335551585015326008,0,0,0,0.00390625,-0.03125,0.0351562
-8335551584999203008,0,0,0,0.00390625,-0.03125,0.0351562
-8335551584987943008,0,0,0,0.00390625,-0.03125,-0.0429688
-8335551584975979008,0,0,0,0.00390625,-0.03125,-0.00390625
-8335551584967526008,0,0,0,-0.0351562,-0.03125,0.0351562
-8335551584955656008,0,0,0,0.00390625,0.0078125,-0.00390625
-8335551584944551008,0,0,0,0.00390625,0.0078125,-0.00390625
-8335551584931581008,0,0,0,-0.0351562,0.0078125,-0.00390625
-8335551584921850008,0,0,0,0.00390625,0.0078125,-0.0429688
-8335551584906240008,0,0,0,0.00390625,0.0078125,-0.00390625
-8335551584897135008,0,0,0,0.00390625,0.0078125,0.0351562
-8335551584884079008,0,0,0,0.00390625,0.0078125,-0.00390625
-8335551584872773008,0,0,0,0.00390625,0.0078125,-0.00390625
-8335551584857498008,0,0,0,0.00390625,0.0078125,-0.00390625
-8335551584844854008,0,0,0,0.00390625,0.0078125,-0.00390625
-8335551584832755008,0,0,0,0.00390625,0.0078125,-0.00390625
-8335551584823856008,0,0,0,0.00390625,0.0078125,-0.00390625
-8335551584813871008,0,0,0,0.00390625,-0.03125,-0.00390625
-8335551584803432008,0,0,0,0.00390625,-0.03125,-0.00390625
-8335551584796478008,0,0,0,0.00390625,-0.03125,0.0351562
-8335551584787536008,0,0,0,0.0429688,0.0078125,0.0351562
-8335551584778973008,0,0,0,0.00390625,0.0078125,0.0351562
-8335551584770188008,0,0,0,0.00390625,0.0078125,-0.00390625
-8335551584764306008,0,0,0,0.00390625,0.0078125,-0.00390625
-8335551584757903008,0,0,0,0.00390625,0.0078125,-0.00390625
-8335551584750739008,0,0,0,0.0429688,0.0078125,-0.00390625
-8335551584745149008,0,0,0,-0.0351562,-0.03125,-0.00390625
-8335551584739933008,0,0,0,0.00390625,0.0078125,-0.00390625
-8335551584732522008,0,0,0,0.00390625,0.0078125,-0.00390625
-8335551584726353008,0,0,0,0.00390625,-0.03125,-0.00390625
-8335551584719557008,0,0,0,0.0429688,-0.03125,-0.0429688
-8335551584713913008,0,0,0,0.00390625,0.0078125,0.0351562
-8335551584705161008,0,0,0,-0.0351562,0.0078125,-0.00390625
-8335551584697785008,0,0,0,-0.0351562,0.0078125,-0.00390625
-8335551584687250008,0,0,0,0.00390625,0.0078125,-0.00390625
-8335551584678210008,0,0,0,0.00390625,0.0078125,-0.00390625
-8335551584669401008,0,0,0,0.00390625,0.0078125,-0.00390625
-8335551584661085008,0,0,0,0.00390625,0.0078125,-0.00390625
-8335551584653449008,0,0,0,0.00390625,0.0078125,-0.00390625
-8335551584645523008,0,0,0,0.00390625,0.0078125,-0.00390625
-8335551584637675008,0,0,0,0.00390625,0.0078125,-0.00390625
-8335551584626554008,0,0,0,0.00390625,0.0078125,-0.0429688
-8335551584619127008,0,0,0,0.00390625,0.0078125,-0.0429688
-8335551584610197008,0,0,0,0.00390625,0.0078125,-0.0429688
-8335551584600371008,0,0,0,0.00390625,0.0078125,-0.0429688
-8335551584593075008,0,0,0,-0.0351562,0.0078125,0.0351562
-8335551584583971008,0,0,0,0.00390625,0.0078125,-0.00390625
-8335551584573919008,0,0,0,0.00390625,0.0078125,-0.0429688
-8335551584563032008,0,0,0,0.00390625,0.0078125,-0.0429688
-8335551584552482008,0,0,0,0.00390625,0.0078125,-0.00390625
-8335551584541552008,0,0,0,0.00390625,0.0078125,-0.00390625
-8335551584534050008,0,0,0,0.00390625,0.0078125,-0.00390625
-8335551584525104008,0,0,0,0.00390625,0.0078125,-0.00390625
-8335551584518214008,0,0,0,0.00390625,0.0078125,-0.00390625
-8335551584510028008,0,0,0,0.00390625,-0.03125,-0.00390625
-8335551584505097008,0,0,0,0.00390625,-0.03125,-0.0429688
-8335551584497481008,0,0,0,0.00390625,-0.03125,-0.0429688
-8335551584487539008,0,0,0,0.00390625,0.046875,-0.00390625
-8335551584482075008,0,0,0,0.0429688,0.0078125,-0.00390625
-8335551584472621008,0,0,0,0.00390625,-0.03125,-0.00390625
-8335551584462394008,0,0,0,0.0429688,0.0078125,0.0742188
-8335551584452694008,0,0,0,0.00390625,-0.03125,-0.00390625
-8335551584443631008,0,0,0,0.00390625,0.0078125,0.0351562
-8335551584434867008,0,0,0,0.00390625,0.0078125,-0.0429688
-8335551584424227008,0,0,0,0.00390625,0.0078125,-0.0429688
-8335551584417157008,0,0,0,0.00390625,0.0078125,-0.00390625
-8335551584407407008,0,0,0,0.00390625,0.0078125,0.0351562
-8335551584396607008,0,0,0,0.00390625,0.0078125,-0.00390625
-8335551584385289008,0,0,0,0.00390625,0.0078125,-0.00390625
-8335551584374670008,0,0,0,-0.0351562,-0.03125,-0.00390625
-8335551584362529008,0,0,0,0.00390625,0.0078125,-0.00390625
-8335551584350489008,0,0,0,0.00390625,0.0078125,-0.0429688
-8335551584342339008,0,0,0,0.00390625,0.0078125,-0.00390625
-8335551584333359008,0,0,0,0.00390625,0.0078125,-0.00390625
-8335551584324734008,0,0,0,0.0429688,-0.0664062,0.0351562
-8335551584317412008,0,0,0,0.0429688,-0.0664062,0.0351562
-8335551584311258008,0,0,0,0.00390625,-0.03125,-0.0429688
-8335551584302561008,0,0,0,0.00390625,-0.03125,-0.0429688
-8335551584292941008,0,0,0,0.00390625,0.0078125,-0.00390625
-8335551584284359008,0,0,0,0.00390625,0.0078125,-0.00390625
-8335551584276207008,0,0,0,0.00390625,0.0078125,0.0351562
-8335551584267177008,0,0,0,-0.0351562,0.0078125,-0.0429688
-8335551584257536008,0,0,0,-0.0351562,0.0078125,0.00390625
-8335551584248173008,0,0,0,0.00390625,0.0078125,0.00390625
-8335551584236794008,0,0,0,0.00390625,-0.03125,0.0429688
-8335551584229154008,0,0,0,0.00390625,-0.03125,0.0429688
-8335551584220311008,0,0,0,0.00390625,-0.03125,0.0429688
-8335551584210904008,0,0,0,-0.0351562,0.0078125,0.00390625
-8335551584203600008,0,0,0,-0.0351562,0.0078125,0.00390625
-8335551584190488008,0,0,0,0.00390625,-0.03125,0.0429688
-8335551584181714008,0,0,0,0.00390625,-0.03125,0.00390625
-8335551584168447008,0,0,0,0.00390625,0.0078125,0.0429688
-8335551584159582008,0,0,0,0.00390625,-0.03125,0.00390625
-8335551584149043008,0,0,0,0.00390625,-0.03125,0.00390625
-8335551584140830008,0,0,0,0.00390625,-0.03125,0.00390625
-8335551584132859008,0,0,0,0.00390625,-0.03125,-0.0351562
-8335551584125177008,0,0,0,0.00390625,-0.03125,-0.0351562
-8335551584116115008,0,0,0,0.00390625,0.0078125,0.00390625
-8335551584108380008,0,0,0,0.00390625,0.0078125,0.00390625
-8335551584095679008,0,0,0,0.00390625,-0.03125,0.00390625
-8335551584085748008,0,0,0,0.00390625,0.0078125,0.0429688
-8335551584075746008,0,0,0,0.00390625,-0.03125,-0.00390625
-8335551584063051008,0,0,0,0.00390625,0.0078125,-0.00390625
-8335551584050918008,0,0,0,0.0429688,0.0078125,-0.00390625
-8335551584042744008,0,0,0,-0.0351562,-0.03125,0.0351562
-8335551584033963008,0,0,0,0.00390625,0.0078125,-0.0351562
-8335551584023837008,0,0,0,0.00390625,0.0078125,-0.0351562
-8335551584017530008,0,0,0,-0.0351562,0.0078125,0.00390625
-8335551584007166008,0,0,0,0.00390625,0.0078125,0.0429688
-8335551583998617008,0,0,0,0.00390625,0.0078125,0.00390625
-8335551583989097008,0,0,0,0.0429688,0.0078125,0.00390625
-8335551583981710008,0,0,0,0.0429688,0.0078125,0.00390625
-8335551583975465008,0,0,0,0.00390625,0.0078125,-0.0351562
-8335551583970444008,0,0,0,-0.0351562,-0.03125,-0.0351562
-8335551583965513008,0,0,0,0.00390625,0.0078125,0.00390625
-8335551583960537008,0,0,0,-0.0351562,0.0078125,0.00390625
-8335551583955590008,0,0,0,-0.0351562,0.0078125,0.00390625
-8335551583948469008,0,0,0,0.0429688,0.046875,0.0429688
-8335551583943142008,0,0,0,0.0429688,0.0078125,0.00390625
-8335551583934266008,0,0,0,-0.0351562,-0.03125,0.00390625
-8335551583926426008,0,0,0,-0.0351562,-0.03125,0.00390625
-8335551583920248008,0,0,0,0.00390625,-0.03125,0.0429688
-8335551583912550008,0,0,0,-0.0351562,0.0078125,0.0429688
-8335551583907448008,0,0,0,0.00390625,0.0078125,0.00390625
-8335551583898700008,0,0,0,0.00390625,0.0078125,0.00390625
-8335551583889868008,0,0,0,0.00390625,0.0078125,-0.0351562
-8335551583883111008,0,0,0,0.00390625,0.0078125,-0.0351562
-8335551583875719008,0,0,0,0.00390625,0.0078125,-0.0351562
-8335551583869785008,0,0,0,0.00390625,0.0078125,0.00390625
-8335551583862267008,0,0,0,0.00390625,0.0078125,0.00390625
-8335551583855869008,0,0,0,0.00390625,0.0078125,0.00390625
-8335551583850930008,0,0,0,0.00390625,-0.03125,0.00390625
-8335551583845836008,0,0,0,0.00390625,0.0078125,0.00390625
-8335551583840308008,0,0,0,0.00390625,0.0078125,0.00390625
-8335551583835366008,0,0,0,-0.0351562,-0.03125,0.00390625
-8335551583830466008,0,0,0,-0.0351562,0.0078125,0.00390625
-8335551583825556008,0,0,0,0.00390625,-0.03125,0.00390625
-8335551583820164008,0,0,0,0.00390625,-0.03125,0.00390625
-8335551583814863008,0,0,0,0.00390625,0.0078125,0.00390625
-8335551583807470008,0,0,0,0.00390625,0.0078125,0.00390625
-8335551583801073008,0,0,0,-0.0351562,0.0078125,0.00390625
-8335551583795914008,0,0,0,-0.0351562,-0.03125,-0.0351562
-8335551583791002008,0,0,0,-0.0351562,0.0078125,0.00390625
-8335551583784727008,0,0,0,0.00390625,-0.03125,0.00390625
-8335551583779538008,0,0,0,0.00390625,-0.03125,0.00390625
-8335551583771909008,0,0,0,0.00390625,-0.03125,0.00390625
-8335551583765891008,0,0,0,0.00390625,0.0078125,0.0429688
-8335551583760756008,0,0,0,-0.0351562,-0.03125,0.00390625
-8335551583752339008,0,0,0,0.00390625,-0.03125,0.00390625
-8335551583744147008,0,0,0,0.00390625,0.0078125,0.00390625
-8335551583736853008,0,0,0,0.00390625,0.0078125,0.00390625
-8335551583728663008,0,0,0,0.00390625,-0.03125,0.0429688
-8335551583723067008,0,0,0,0.00390625,0.0078125,0.00390625
-8335551583714317008,0,0,0,0.00390625,0.0078125,0.00390625
-8335551583707005008,0,0,0,0.00390625,0.0078125,0.00390625
-8335551583699457008,0,0,0,0.0117188,0.0078125,0.00390625
-8335551583692381008,0,0,0,0.0117188,0.0078125,-0.0351562
-8335551583681625008,0,0,0,-0.0273438,-0.03125,0.00390625
-8335551583673753008,0,0,0,-0.0273438,-0.03125,0.00390625
-8335551583664805008,0,0,0,-0.0273438,-0.03125,0.00390625
-8335551583656619008,0,0,0,-0.0273438,-0.03125,0.00390625
-8335551583649417008,0,0,0,0.0507812,0.0078125,0.00390625
-8335551583639187008,0,0,0,0.0507812,0.0078125,0.00390625
-8335551583628372008,0,0,0,0.0507812,0.0078125,0.00390625
-8335551583621386008,0,0,0,0.0117188,0.0078125,0.00390625
-8335551583613055008,0,0,0,0.0117188,0.0078125,0.0429688
-8335551583600880008,0,0,0,0.0117188,0.0078125,0.00390625
-8335551583593612008,0,0,0,0.0117188,0.0078125,0.00390625
-8335551583583633008,0,0,0,-0.0273438,0.0078125,0.0351562
-8335551583574731008,0,0,0,0.0117188,0.0078125,0.0351562
-8335551583566336008,0,0,0,0.0117188,0.0078125,0.0351562
-8335551583558163008,0,0,0,0.0117188,0.0078125,0.0351562
-8335551583552118008,0,0,0,0.0507812,0.0078125,-0.0429688
-8335551583543948008,0,0,0,0.0117188,-0.03125,-0.00390625
-8335551583534454008,0,0,0,0.0117188,-0.03125,-0.00390625
-8335551583527536008,0,0,0,0.0117188,-0.03125,-0.00390625
-8335551583518602008,0,0,0,-0.0273438,0.0078125,0.0351562
-8335551583508860008,0,0,0,-0.0273438,0.0078125,-0.00390625
-8335551583502267008,0,0,0,-0.0273438,0.0078125,-0.00390625
-8335551583491561008,0,0,0,0.0507812,-0.03125,-0.00390625
-8335551583483445008,0,0,0,0.0507812,-0.03125,-0.00390625
-8335551583471613008,0,0,0,0.0117188,0.0078125,-0.0429688
-8335551583463270008,0,0,0,-0.0273438,0.0078125,-0.00390625
-8335551583453157008,0,0,0,0.0117188,0.0078125,0.0351562
-8335551583444187008,0,0,0,0.0117188,0.0078125,-0.00390625
-8335551583436791008,0,0,0,0.0117188,0.0078125,-0.00390625
-8335551583430842008,0,0,0,-0.0273438,-0.03125,-0.00390625
-8335551583425523008,0,0,0,0.0117188,-0.03125,-0.00390625
-8335551583420507008,0,0,0,0.0117188,0.0078125,-0.00390625
-8335551583415557008,0,0,0,0.0117188,-0.03125,0.0351562
-8335551583408828008,0,0,0,-0.0273438,0.0078125,-0.00390625
-8335551583400696008,0,0,0,-0.0273438,0.0078125,-0.00390625
-8335551583394723008,0,0,0,0.0117188,0.0078125,-0.00390625
-8335551583387374008,0,0,0,0.0117188,0.0078125,-0.00390625
-8335551583379801008,0,0,0,-0.0273438,0.0078125,-0.00390625
-8335551583370543008,0,0,0,0.0117188,0.0078125,-0.00390625
-8335551583361531008,0,0,0,0.0117188,-0.03125,-0.00390625
-8335551583353338008,0,0,0,0.0117188,0.0078125,-0.00390625
-8335551583344620008,0,0,0,0.0117188,0.0078125,-0.00390625
-8335551583336353008,0,0,0,0.0117188,0.0078125,-0.00390625
-8335551583330456008,0,0,0,0.0117188,0.0078125,-0.00390625
-8335551583325526008,0,0,0,-0.0273438,0.046875,0.0351562
-8335551583320510008,0,0,0,0.0117188,0.0078125,0.0351562
-8335551583319880008,0,0,0,0.0117188,0.0078125,0.0351562
-8335551583317193008,0,0,0,0.0117188,0.0078125,0.0351562
-8335551583308672008,0,0,0,0.0117188,-0.03125,-0.00390625
-8335551583302380008,0,0,0,0.0117188,0.0078125,-0.00390625
-8335551583293533008,0,0,0,0.0117188,0.0078125,-0.0429688
-8335551583284128008,0,0,0,0.0117188,0.0078125,-0.00390625
-8335551583276832008,0,0,0,0.0117188,0.0078125,-0.00390625
-8335551583270876008,0,0,0,0.0117188,0.0078125,-0.00390625
-8335551583264957008,0,0,0,-0.0273438,-0.03125,-0.00390625
-8335551583260061008,0,0,0,-0.0273438,-0.03125,-0.00390625
-8335551583255151008,0,0,0,0.0117188,-0.03125,0.0351562
-8335551583247893008,0,0,0,0.0117188,-0.03125,0.0351562
-8335551583240756008,0,0,0,0.0117188,-0.03125,0.0351562
-8335551583231026008,0,0,0,0.0117188,0.0078125,-0.00390625
-8335551583223354008,0,0,0,0.0117188,0.0078125,-0.00390625
-8335551583212909008,0,0,0,0.0117188,0.0078125,-0.00390625
-8335551583202636008,0,0,0,0.0117188,0.0078125,-0.00390625
-8335551583192197008,0,0,0,0.0117188,0.0078125,-0.00390625
-8335551583181125008,0,0,0,0.0117188,0.0078125,-0.00390625
-8335551583172934008,0,0,0,0.0117188,-0.03125,-0.00390625
-8335551583164153008,0,0,0,0.0117188,0.0078125,-0.00390625
-8335551583154093008,0,0,0,0.0117188,0.0078125,-0.00390625
-8335551583145038008,0,0,0,0.0117188,0.0078125,-0.00390625
-8335551583139167008,0,0,0,0.0117188,0.0078125,0.0351562
-8335551583130807008,0,0,0,0.0117188,0.0078125,0.0351562
-8335551583124931008,0,0,0,0.0507812,0.0078125,-0.00390625
-8335551583116485008,0,0,0,0.0117188,0.0078125,0.0351562
-8335551583108650008,0,0,0,0.0117188,0.0078125,0.0351562
-8335551583098973008,0,0,0,0.0117188,0.0078125,0.0351562
-8335551583088536008,0,0,0,0.0117188,0.0078125,0.0351562
-8335551583079527008,0,0,0,0.0117188,0.0078125,-0.00390625
-8335551583069149008,0,0,0,0.0117188,0.0078125,-0.00390625
-8335551583059552008,0,0,0,0.0117188,0.0078125,-0.00390625
-8335551583048019008,0,0,0,0.0117188,0.0078125,-0.00390625
-8335551583041726008,0,0,0,-0.0273438,0.0078125,0.0351562
-8335551583033466008,0,0,0,0.0117188,-0.03125,-0.00390625
-8335551583020683008,0,0,0,0.0117188,0.0078125,0.0351562
-8335551583011949008,0,0,0,0.0117188,0.0078125,0.0351562
-8335551583003336008,0,0,0,0.0117188,0.0078125,0.0351562
-8335551582992906008,0,0,0,-0.0273438,0.0078125,0.0351562
-8335551582984141008,0,0,0,-0.0273438,-0.03125,0.0742188
-8335551582976847008,0,0,0,-0.0273438,-0.03125,0.0742188
-8335551582970261008,0,0,0,-0.0273438,-0.0664062,0.0351562
-8335551582965269008,0,0,0,0.0117188,0.0078125,-0.00390625
-8335551582957961008,0,0,0,0.0117188,-0.03125,-0.00390625
-8335551582948822008,0,0,0,0.0117188,0.0078125,-0.00390625
-8335551582940470008,0,0,0,0.0117188,0.0078125,-0.00390625
-8335551582930230008,0,0,0,0.0117188,0.0078125,-0.00390625
-8335551582921579008,0,0,0,0.0117188,-0.03125,0.0351562
-8335551582913396008,0,0,0,0.0117188,0.0078125,0.0351562
-8335551582904270008,0,0,0,0.0117188,0.0078125,-0.00390625
-8335551582896043008,0,0,0,0.0117188,0.0078125,-0.00390625
-8335551582890150008,0,0,0,0.00390625,-0.03125,-0.00390625
-8335551582885245008,0,0,0,0.00390625,-0.03125,-0.00390625
-8335551582876242008,0,0,0,-0.0351562,0.0078125,0.0351562
-8335551582868105008,0,0,0,0.00390625,0.0078125,-0.00390625
-8335551582860769008,0,0,0,0.00390625,0.0078125,-0.00390625
-8335551582852950008,0,0,0,0.00390625,0.0078125,-0.00390625
-8335551582844453008,0,0,0,0.00390625,0.0078125,-0.00390625
-8335551582834186008,0,0,0,-0.0351562,0.0078125,-0.00390625
-8335551582825980008,0,0,0,0.00390625,0.0078125,-0.00390625
-8335551582814663008,0,0,0,0.00390625,-0.03125,-0.00390625
-8335551582806486008,0,0,0,0.00390625,0.0078125,0.0351562
-8335551582798353008,0,0,0,0.00390625,0.0078125,0.0742188
-8335551582788871008,0,0,0,-0.0351562,-0.03125,-0.00390625
-8335551582781573008,0,0,0,-0.0351562,-0.03125,-0.00390625
-8335551582775659008,0,0,0,0.0117188,0.0078125,-0.00390625
-8335551582770550008,0,0,0,-0.0273438,-0.03125,0.0351562
-8335551582765486008,0,0,0,0.0117188,0.0078125,0.0351562
-8335551582760539008,0,0,0,0.0117188,-0.03125,0.0351562
-8335551582752705008,0,0,0,0.0117188,-0.03125,-0.00390625
-8335551582744598008,0,0,0,0.0117188,0.0078125,-0.00390625
-8335551582733665008,0,0,0,0.0117188,0.0078125,-0.00390625
-8335551582724731008,0,0,0,0.0117188,0.0078125,-0.00390625
-8335551582716279008,0,0,0,0.0117188,0.0078125,-0.00390625
-8335551582708543008,0,0,0,0.0117188,0.046875,0.0351562
-8335551582702849008,0,0,0,0.0117188,0.0078125,0.0351562
-8335551582693804008,0,0,0,0.0117188,0.0078125,-0.00390625
-8335551582685301008,0,0,0,0.0117188,0.0078125,-0.00390625
-8335551582679351008,0,0,0,-0.0273438,-0.03125,-0.0429688
-8335551582672101008,0,0,0,-0.0273438,-0.03125,-0.0429688
-8335551582663277008,0,0,0,0.0117188,0.0078125,-0.00390625
-8335551582653801008,0,0,0,0.0117188,0.0078125,-0.0429688
-8335551582645013008,0,0,0,0.0117188,-0.0234375,-0.00390625
-8335551582640098008,0,0,0,-0.0273438,-0.0234375,-0.00390625
-8335551582632423008,0,0,0,-0.0273438,0.015625,0.0351562
-8335551582627236008,0,0,0,0.0117188,0.015625,-0.00390625
-8335551582618442008,0,0,0,-0.0273438,-0.0234375,-0.00390625
-8335551582607429008,0,0,0,0.0117188,0.015625,-0.00390625
-8335551582597241008,0,0,0,0.0117188,0.015625,0.0351562
-8335551582584997008,0,0,0,0.0117188,0.015625,0.0351562
-8335551582576619008,0,0,0,0.0117188,0.015625,0.0351562
-8335551582565821008,0,0,0,0.0117188,0.015625,-0.00390625
-8335551582557648008,0,0,0,0.0117188,0.015625,-0.0429688
-8335551582548884008,0,0,0,0.0117188,0.015625,-0.00390625
-8335551582541586008,0,0,0,0.0117188,0.015625,-0.00390625
-8335551582535597008,0,0,0,0.0117188,0.015625,-0.00390625
-8335551582530668008,0,0,0,0.0117188,0.015625,-0.00390625
-8335551582525192008,0,0,0,0.0117188,0.015625,-0.00390625
-8335551582519681008,0,0,0,0.0117188,0.0078125,-0.0429688
-8335551582508866008,0,0,0,0.0117188,0.0078125,-0.0429688
-8335551582501544008,0,0,0,-0.0273438,-0.03125,0.0351562
-8335551582493137008,0,0,0,0.0117188,0.0078125,-0.00390625
-8335551582480167008,0,0,0,0.0117188,0.0078125,-0.00390625
-8335551582471971008,0,0,0,0.0117188,-0.03125,-0.00390625
-8335551582463832008,0,0,0,0.0117188,0.0078125,-0.00390625
-8335551582455856008,0,0,0,0.0117188,0.0078125,-0.00390625
-8335551582444979008,0,0,0,-0.0273438,0.0078125,-0.00390625
-8335551582434953008,0,0,0,-0.0273438,0.0078125,-0.00390625
-8335551582427420008,0,0,0,0.0117188,0.0078125,0.0351562
-8335551582415860008,0,0,0,-0.0273438,-0.03125,-0.00390625
-8335551582408555008,0,0,0,-0.0273438,-0.03125,-0.00390625
-8335551582396702008,0,0,0,-0.0273438,-0.03125,-0.00390625
-8335551582389377008,0,0,0,-0.0273438,-0.03125,-0.00390625
-8335551582381189008,0,0,0,-0.0273438,-0.03125,-0.00390625
-8335551582374013008,0,0,0,0.0117188,0.0078125,-0.00390625
-8335551582364880008,0,0,0,0.0117188,0.0078125,-0.00390625
-8335551582356084008,0,0,0,0.0117188,0.0078125,-0.00390625
-8335551582347892008,0,0,0,0.0117188,-0.03125,-0.00390625
-8335551582335557008,0,0,0,0.0117188,-0.03125,0.0351562
-8335551582325473008,0,0,0,0.0117188,-0.03125,0.0351562
-8335551582313036008,0,0,0,0.0117188,0.0078125,-0.00390625
-8335551582304521008,0,0,0,0.0507812,-0.03125,-0.00390625
-8335551582292950008,0,0,0,0.0507812,-0.03125,-0.00390625
-8335551582282851008,0,0,0,0.0507812,-0.03125,-0.00390625
-8335551582272684008,0,0,0,0.0117188,0.015625,-0.00390625
-8335551582263890008,0,0,0,0.0117188,-0.0234375,0.0351562
-8335551582258859008,0,0,0,0.0117188,-0.0234375,-0.00390625
-8335551582243864008,0,0,0,0.0117188,-0.0234375,-0.00390625
-8335551582233873008,0,0,0,0.0507812,0.015625,-0.00390625
-8335551582222624008,0,0,0,0.0507812,0.015625,-0.00390625
-8335551582213144008,0,0,0,-0.0273438,-0.03125,0.0351562
-8335551582201111008,0,0,0,0.0117188,-0.03125,-0.00390625
-8335551582192550008,0,0,0,0.0117188,0.0078125,0.0351562
-8335551582183566008,0,0,0,0.0117188,-0.03125,-0.0429688
-8335551582175400008,0,0,0,0.0117188,-0.03125,-0.0429688
-8335551582169506008,0,0,0,0.0117188,0.0078125,0.0351562
-8335551582159457008,0,0,0,0.0117188,0.0078125,0.0351562
-8335551582149831008,0,0,0,0.0117188,0.0078125,0.0351562
-8335551582143856008,0,0,0,0.0117188,-0.03125,0.0351562
-8335551582134239008,0,0,0,0.0117188,-0.03125,0.0351562
-8335551582127290008,0,0,0,0.00390625,0.0078125,-0.00390625
-8335551582115858008,0,0,0,0.00390625,0.0078125,-0.00390625
-8335551582107492008,0,0,0,0.00390625,0.0078125,0.0351562
-8335551582098704008,0,0,0,0.00390625,-0.03125,-0.00390625
-8335551582088493008,0,0,0,0.00390625,-0.03125,-0.00390625
-8335551582081941008,0,0,0,0.00390625,0.0078125,0.0351562
-8335551582072780008,0,0,0,-0.0351562,-0.03125,-0.00390625
-8335551582062507008,0,0,0,0.00390625,0.0078125,-0.00390625
-8335551582051828008,0,0,0,0.00390625,-0.03125,-0.00390625
-8335551582039557008,0,0,0,0.0429688,-0.03125,-0.0429688
-8335551582032027008,0,0,0,0.0429688,-0.03125,-0.0429688
-8335551582022714008,0,0,0,0.00390625,0.0078125,-0.00390625
-8335551582013923008,0,0,0,0.00390625,-0.03125,0.0351562
-8335551582006595008,0,0,0,0.00390625,-0.03125,0.0351562
-8335551582000710008,0,0,0,-0.0351562,-0.03125,-0.00390625
-8335551581992871008,0,0,0,0.00390625,0.0078125,-0.0429688
-8335551581987187008,0,0,0,0.00390625,0.0078125,0.0351562
-8335551581976549008,0,0,0,0.00390625,0.0078125,-0.00390625
-8335551581966476008,0,0,0,0.00390625,-0.03125,0.0351562
-8335551581958343008,0,0,0,0.00390625,-0.03125,-0.00390625
-8335551581949541008,0,0,0,-0.0351562,0.0078125,-0.00390625
-8335551581943476008,0,0,0,-0.0351562,0.0078125,-0.00390625
-8335551581936440008,0,0,0,-0.0351562,0.0078125,-0.00390625
-8335551581930548008,0,0,0,0.00390625,-0.03125,-0.00390625
-8335551581925634008,0,0,0,0.00390625,-0.03125,0.0351562
-8335551581920710008,0,0,0,0.0429688,-0.03125,-0.00390625
-8335551581914565008,0,0,0,0.00390625,-0.0234375,-0.0429688
-8335551581908576008,0,0,0,0.00390625,0.015625,-0.00390625
-8335551581902059008,0,0,0,0.00390625,0.015625,-0.00390625
-8335551581893754008,0,0,0,0.00390625,0.0546875,-0.00390625
-8335551581885666008,0,0,0,0.00390625,0.0546875,-0.00390625
-8335551581879724008,0,0,0,0.00390625,-0.0234375,-0.00390625
-8335551581872423008,0,0,0,0.00390625,-0.0234375,-0.00390625
-8335551581865962008,0,0,0,0.00390625,0.015625,0.0351562
-8335551581860249008,0,0,0,0.00390625,0.015625,0.0351562
-8335551581855317008,0,0,0,-0.0351562,0.015625,-0.00390625
-8335551581848896008,0,0,0,0.0429688,-0.0234375,-0.00390625
-8335551581842123008,0,0,0,0.00390625,0.015625,-0.00390625
-8335551581832399008,0,0,0,0.00390625,0.015625,-0.00390625
-8335551581824556008,0,0,0,0.00390625,0.015625,-0.00390625
-8335551581815714008,0,0,0,0.00390625,0.015625,-0.00390625
-8335551581806580008,0,0,0,-0.0351562,0.015625,0.0351562
-8335551581798356008,0,0,0,-0.0351562,0.015625,0.0351562
-8335551581789271008,0,0,0,-0.0351562,0.015625,-0.00390625
-8335551581781666008,0,0,0,-0.0351562,0.015625,-0.00390625
-8335551581773747008,0,0,0,-0.0351562,0.015625,-0.00390625
-8335551581765031008,0,0,0,-0.0351562,0.015625,-0.00390625
-8335551581759097008,0,0,0,0.00390625,0.015625,-0.00390625
-8335551581751791008,0,0,0,0.00390625,0.015625,-0.00390625
-8335551581745698008,0,0,0,-0.0351562,0.015625,-0.00390625
-8335551581739834008,0,0,0,0.00390625,0.015625,0.0351562
-8335551581732535008,0,0,0,0.00390625,0.015625,0.0351562
-8335551581725702008,0,0,0,0.00390625,0.015625,0.0351562
-8335551581718732008,0,0,0,0.0429688,-0.0234375,-0.00390625
-8335551581712145008,0,0,0,0.0429688,-0.0234375,-0.00390625
-8335551581704791008,0,0,0,0.00390625,0.015625,0.0351562
-8335551581699838008,0,0,0,-0.0351562,0.0546875,-0.00390625
-8335551581693860008,0,0,0,-0.0351562,0.0546875,-0.00390625
-8335551581687445008,0,0,0,-0.0351562,0.0546875,-0.00390625
-8335551581680929008,0,0,0,0.0429688,0.0078125,-0.00390625
-8335551581676008008,0,0,0,0.00390625,0.0078125,-0.00390625
-8335551581668117008,0,0,0,-0.0351562,0.0078125,-0.00390625
-8335551581659046008,0,0,0,0.00390625,0.0078125,-0.00390625
-8335551581651416008,0,0,0,0.00390625,0.0078125,-0.00390625
-8335551581644479008,0,0,0,0.00390625,0.0078125,0.0351562
-8335551581635022008,0,0,0,0.00390625,0.0078125,-0.00390625
-8335551581626844008,0,0,0,0.00390625,0.0078125,-0.00390625
-8335551581614495008,0,0,0,0.00390625,-0.03125,0.0351562
-8335551581603896008,0,0,0,0.00390625,-0.03125,0.0351562
-8335551581595652008,0,0,0,0.00390625,-0.03125,0.0351562
-8335551581589758008,0,0,0,0.00390625,0.046875,-0.00390625
-8335551581580787008,0,0,0,0.00390625,0.0078125,0.0351562
-8335551581572548008,0,0,0,0.00390625,0.0078125,-0.0429688
-8335551581562866008,0,0,0,0.00390625,0.0078125,0.0351562
-8335551581554536008,0,0,0,0.00390625,0.0078125,0.0351562
-8335551581547015008,0,0,0,0.00390625,0.0078125,0.0351562
-8335551581539613008,0,0,0,-0.0351562,0.0078125,0.0351562
-8335551581529897008